onset	duration	trial_type	response	response_time	stim	sub
3.1	2	1_1	1	1.170182	c3.jpg	105
8.6	2	5_1	1	1.025485	c8.jpg	105
13.4	2	5_1	1	0.8832894	c1.jpg	105
20	2	5_1	1	0.9948022	c18.jpg	105
24	2	5_1	1	0.9003993	c10.jpg	105
28.4	2	5_1	1	0.8926565	c17.jpg	105
34.6	2	5_2	2	0.9139967	c10.jpg	105
38.7	2	5_1	1	1.033538	c16.jpg	105
45.6	2	5_1	1	1.374926	c13.jpg	105
52.6	2	5_3	2	1.041552	c10.jpg	105
56.6	2	1_1	1	0.865107	c24.jpg	105
64.3	2	5_2	2	1.773091	c13.jpg	105
68.7	2	5_1	1	0.9370434	c6.jpg	105
74.6	2	5_1	1	1.850581	c2.jpg	105
81.2	2	5_2	2	1.082159	c2.jpg	105
88.8	2	1_1	1	1.060376	c7.jpg	105
96.9	2	5_1	1	1.117411	c21.jpg	105
104.2	2	5_2	2	1.160571	c8.jpg	105
109.7	2	5_2	2	1.112977	c21.jpg	105
114.1	2	1_1	1	0.9430024	c5.jpg	105
121	2	5_1	1	1.586231	c19.jpg	105
125.4	2	5_2	1	1.396507	c6.jpg	105
131.3	2	5_2	2	1.136863	c18.jpg	105
135.3	2	5_3	2	0.8318725	c8.jpg	105
140.1	2	5_3	2	0.8266753	c18.jpg	105
148.1	2	5_3	2	1.068762	c13.jpg	105
153.2	2	5_3	2	0.7583538	c21.jpg	105
159.1	2	5_2	2	0.9672256	c19.jpg	105
163.1	2	5_2	2	0.7613162	c17.jpg	105
169.7	2	5_3	2	0.9137149	c6.jpg	105
174.5	2	1_1	1	0.9483667	c23.jpg	105
180.3	2	5_4	2	0.748099	c21.jpg	105
187.3	2	5_2	2	1.194758	c16.jpg	105
193.5	2	5_4	2	0.8662964	c13.jpg	105
199	2	5_3	2	0.9828388	c2.jpg	105
206.6	2	5_1	1	1.132089	c11.jpg	105
213.6	2	5_4	2	1.007122	c6.jpg	105
219.1	2	5_3	2	0.8309705	c16.jpg	105
226.4	2	1_1	1	0.8864552	c14.jpg	105
230.4	2	5_2	1	1.338764	c1.jpg	105
238.5	2	5_2	2	1.26727	c11.jpg	105
246.2	2	5_4	2	0.7723803	c8.jpg	105
250.9	2	5_4	2	0.7161826	c18.jpg	105
257.1	2	1_1	1	0.9298041	c12.jpg	105
261.9	2	5_5	2	1.71651	c13.jpg	105
267.8	2	5_4	2	0.7384073	c16.jpg	105
275.1	2	5_3	2	0.6149418	c17.jpg	105
281.6	2	5_5	2	0.8192668	c16.jpg	105
288.6	2	5_4	2	0.6904428	c17.jpg	105
295.2	2	5_4	2	1.151848	c10.jpg	105
302.5	2	1_1	1	1.314061	c22.jpg	105
306.9	2	5_3	2	1.05658	c1.jpg	105
312	2	5_3	2	1.363156	c19.jpg	105
316.4	2	5_5	2	0.8634179	c8.jpg	105
321.9	2	5_5	2	1.466907	c6.jpg	105
327.4	2	5_5	2	1.413759	c18.jpg	105
333.3	2	1_1	1	0.954014	c9.jpg	105
339.9	2	5_4	2	0.8816041	c1.jpg	105
346.1	2	5_4	2	0.9073976	c2.jpg	105
353.8	2	1_1	1	1.077543	c15.jpg	105
358.9	2	1_1	1	0.9274552	c20.jpg	105
366.2	2	5_5	2	0.831798	c21.jpg	105
371	2	5_5	2	0.625352	c1.jpg	105
377.2	2	5_3	2	0.9072254	c11.jpg	105
382.3	2	5_4	2	0.7410204	c11.jpg	105
387.5	2	5_5	2	0.7726846	c17.jpg	105
395.5	2	5_5	2	0.8322068	c2.jpg	105
403.2	2	5_4	2	0.930146	c19.jpg	105
411.2	2	5_5	2	0.6557077	c19.jpg	105
418.5	2	5_5	2	0.8412897	c10.jpg	105
426.6	2	5_5	2	0.8753501	c11.jpg	105
431.7	2	1_1	1	0.9203903	c4.jpg	105
3.126	2	5_1	2	1.496627	c17.jpg	106
9.418	2	5_1	1	0.6683067	c8.jpg	106
16.754	2	1_1	1	0.7708768	c23.jpg	106
20.853	2	5_1	1	1.734353	c1.jpg	106
27.442	2	5_1	1	1.432514	c11.jpg	106
33.703	2	5_1	1	1.486928	c2.jpg	106
40.289	2	5_1	1	1.452387	c21.jpg	106
48.36	2	5_1	1	1.114672	c6.jpg	106
54.95	2	5_1	1	1.613535	c10.jpg	106
59.362	2	1_1	1	1.507805	c15.jpg	106
63.773	2	5_1	1	1.776041	c13.jpg	106
70.716	2	5_2	2	0.9770976	c8.jpg	106
77.67	2	1_1	1	1.797805	c4.jpg	106
82.446	2	5_2	2	0.9526378	c1.jpg	106
87.58	2	1_1	1	1.735317	c7.jpg	106
95.615	2	5_2	2	1.139285	c11.jpg	106
101.097	2	5_3	2	0.8426674	c11.jpg	106
108.773	2	5_2	2	1.392247	c2.jpg	106
116.09	2	5_3	2	0.8391288	c2.jpg	106
122.31	2	5_2	2	1.185209	c10.jpg	106
129.997	2	5_1	1	1.253135	c16.jpg	106
135.855	2	5_3	2	0.8094082	c8.jpg	106
142.807	2	5_4	2	1.913831	c2.jpg	106
148.295	2	5_2	2	0.8634068	c16.jpg	106
152.713	2	5_1	1	1.978616	c19.jpg	106
156.765	2	1_1	1	0.8844817	c22.jpg	106
163.727	2	5_1	1	1.590451	c18.jpg	106
168.512	2	5_3	2	0.9147207	c1.jpg	106
174.366	2	5_2	1	1.319087	c21.jpg	106
178.769	2	5_4	2	0.6093716	c8.jpg	106
186.07	2	5_3	2	1.516162	c16.jpg	106
193.022	2	1_1	1	1.085011	c12.jpg	106
200.339	2	5_2	2	1.347632	c18.jpg	106
208.38	2	1_1	1	1.273843	c9.jpg	106
213.869	2	5_2	2	0.8340454	c6.jpg	106
219.023	2	1_1	1	1.170193	c3.jpg	106
225.24	2	5_3	2	0.6377336	c6.jpg	106
230.008	2	5_3	2	1.718469	c10.jpg	106
235.86	2	1_1	1	1.240479	c24.jpg	106
242.445	2	5_2	1	1.770916	c13.jpg	106
247.949	2	5_4	2	0.8908864	c1.jpg	106
253.439	2	5_3	2	0.927305	c18.jpg	106
261.118	2	5_3	2	1.012534	c21.jpg	106
265.509	2	5_2	2	1.54845	c19.jpg	106
270.275	2	1_1	1	1.253316	c20.jpg	106
275.394	2	5_3	2	0.7612185	c13.jpg	106
280.528	2	5_3	2	0.5953267	c19.jpg	106
288.584	2	1_1	2	0.8959508	c5.jpg	106
296.27	2	5_5	2	0.7466053	c1.jpg	106
303.951	2	5_5	2	0.7955492	c2.jpg	106
311.619	2	5_4	2	1.0556	c11.jpg	106
318.201	2	5_4	2	1.066893	c19.jpg	106
322.235	2	5_4	2	1.929354	c13.jpg	106
327.356	2	5_4	2	0.6447683	c6.jpg	106
333.576	2	5_5	2	0.808586	c11.jpg	106
339.433	2	5_5	2	1.118692	c8.jpg	106
345.284	2	5_4	2	0.7692557	c18.jpg	106
353.324	2	5_4	2	0.7651169	c10.jpg	106
358.092	2	5_4	2	0.8255915	c16.jpg	106
362.128	2	1_1	1	1.193239	c14.jpg	106
367.974	2	5_5	2	0.8446181	c6.jpg	106
374.561	2	5_2	1	1.349406	c17.jpg	106
380.787	2	5_5	2	0.6508736	c19.jpg	106
384.819	2	5_5	2	1.499594	c16.jpg	106
389.585	2	5_3	2	0.9513053	c17.jpg	106
396.898	2	5_4	2	0.7505154	c17.jpg	106
400.928	2	5_4	2	0.8985316	c21.jpg	106
408.238	2	5_5	2	0.6612583	c17.jpg	106
415.177	2	5_5	2	0.8407695	c21.jpg	106
420.671	2	5_5	2	0.9050563	c18.jpg	106
425.062	2	5_5	2	0.9048185	c10.jpg	106
430.195	2	5_5	2	1.649173	c13.jpg	106
3.06	2	5_1	1	0.7946583	c23.jpg	111
10.76	2	1_1	1	0.8186046	c18.jpg	111
18.09	2	5_2	2	1.552078	c23.jpg	111
23.98	2	5_1	1	0.9404673	c12.jpg	111
28.76	2	5_1	1	0.9790424	c3.jpg	111
36.43	2	5_1	1	0.8459638	c9.jpg	111
41.92	2	5_2	2	0.8484288	c9.jpg	111
48.14	2	5_1	1	1.403951	c5.jpg	111
52.54	2	5_1	1	0.7038995	c24.jpg	111
60.58	2	5_3	2	0.7206103	c9.jpg	111
64.98	2	5_1	1	1.073257	c7.jpg	111
70.11	2	5_2	2	0.9836933	c3.jpg	111
77.06	2	5_3	2	1.493385	c23.jpg	111
82.55	2	5_2	2	0.9310644	c7.jpg	111
89.85	2	5_2	2	0.9658482	c24.jpg	111
96.44	2	5_1	1	0.7148701	c15.jpg	111
104.48	2	1_1	1	1.487522	c21.jpg	111
108.87	2	1_1	1	0.7866542	c8.jpg	111
115.09	2	1_1	1	0.8611955	c2.jpg	111
120.22	2	5_2	2	0.9276901	c5.jpg	111
126.44	2	5_2	2	1.355906	c15.jpg	111
131.2	2	5_3	2	0.788565	c15.jpg	111
136.69	2	5_3	2	1.037633	c24.jpg	111
140.72	2	5_4	2	0.6893065	c15.jpg	111
148.76	2	5_2	2	1.113766	c12.jpg	111
153.89	2	5_1	1	1.139992	c20.jpg	111
160.83	2	5_1	1	1.450157	c4.jpg	111
168.14	2	5_3	2	0.9893705	c7.jpg	111
172.18	2	1_1	1	1.319139	c19.jpg	111
178.76	2	5_2	2	1.815186	c4.jpg	111
183.16	2	5_1	1	0.8395341	c14.jpg	111
190.1	2	5_3	2	1.212554	c5.jpg	111
196.68	2	5_3	2	0.9562474	c12.jpg	111
200.72	2	5_4	2	0.8934544	c9.jpg	111
207.31	2	5_3	2	0.9427382	c4.jpg	111
211.33	2	5_4	2	0.550311	c4.jpg	111
216.09	2	5_2	2	0.7866407	c20.jpg	111
220.13	2	5_2	2	0.8580586	c14.jpg	111
224.53	2	5_3	2	0.7658611	c3.jpg	111
229.31	2	5_4	2	0.5606837	c5.jpg	111
234.8	2	5_1	1	0.9996235	c22.jpg	111
240.66	2	5_4	2	0.9397354	c7.jpg	111
246.89	2	5_4	2	0.7186661	c12.jpg	111
253.11	2	1_1	1	0.7982503	c6.jpg	111
261.16	2	1_1	1	1.470988	c13.jpg	111
268.1	2	5_5	2	0.8001552	c12.jpg	111
275.4	2	5_5	2	0.9563075	c4.jpg	111
280.17	2	5_3	2	0.8626241	c14.jpg	111
286.03	2	5_4	2	0.7021315	c3.jpg	111
292.98	2	5_5	2	0.6949778	c9.jpg	111
299.57	2	5_3	2	0.7031338	c20.jpg	111
305.06	2	5_2	2	0.756799	c22.jpg	111
311.64	2	5_4	2	0.4979795	c20.jpg	111
319.31	2	5_4	2	0.6459058	c24.jpg	111
323.71	2	5_5	2	0.4937885	c20.jpg	111
328.84	2	5_5	2	0.6573698	c15.jpg	111
335.06	2	5_5	2	0.5205409	c5.jpg	111
340.91	2	1_1	1	0.9142542	c16.jpg	111
346.76	2	1_1	1	0.784332	c17.jpg	111
354.43	2	5_4	2	0.7508356	c14.jpg	111
361.39	2	5_5	2	0.8422357	c3.jpg	111
369.07	2	5_5	2	1.066973	c7.jpg	111
376.74	2	5_5	2	0.8014745	c14.jpg	111
384.04	2	5_3	2	1.21923	c22.jpg	111
389.18	2	5_4	2	0.5074959	c22.jpg	111
397.22	2	5_4	2	1.268591	c23.jpg	111
404.54	2	5_5	2	0.5477138	c22.jpg	111
409.67	2	1_1	NA	NA	c11.jpg	111
415.16	2	1_1	1	0.6735496	c10.jpg	111
419.94	2	1_1	1	0.7225657	c1.jpg	111
423.98	2	5_5	2	0.5779262	c24.jpg	111
432.02	2	5_5	2	0.814818	c23.jpg	111
3.06	2	5_1	1	0.6160066	c7.jpg	114
11.12	2	1_1	1	0.7684968	c16.jpg	114
19.16	2	1_1	1	0.9197038	c18.jpg	114
23.96	2	5_1	1	1.131249	c9.jpg	114
29.46	2	5_1	1	0.7714563	c3.jpg	114
33.5	2	5_1	1	0.9324657	c5.jpg	114
40.44	2	5_2	2	1.230023	c5.jpg	114
48.48	2	5_1	1	0.5700494	c14.jpg	114
54.7	2	5_1	1	0.9174429	c23.jpg	114
60.55	2	5_2	2	0.9756772	c3.jpg	114
67.5	2	5_1	1	1.044573	c12.jpg	114
74.44	2	5_2	2	1.120965	c12.jpg	114
79.2	2	5_3	2	0.8801629	c12.jpg	114
83.24	2	5_1	1	1.179563	c20.jpg	114
90.55	2	5_2	2	0.8797705	c20.jpg	114
98.23	2	1_1	1	1.536613	c2.jpg	114
105.18	2	5_3	2	0.776757	c3.jpg	114
110.3	2	5_2	2	1.458558	c23.jpg	114
115.42	2	5_2	2	0.8673365	c9.jpg	114
120.9	2	5_1	1	0.9191977	c15.jpg	114
125.3	2	5_1	1	0.8911567	c4.jpg	114
131.16	2	5_1	1	0.9625065	c24.jpg	114
138.84	2	5_2	2	0.9667472	c14.jpg	114
143.24	2	5_3	2	1.01129	c5.jpg	114
149.48	2	5_4	2	0.9119533	c3.jpg	114
156.79	2	5_2	2	1.003762	c7.jpg	114
161.18	2	1_1	1	0.7765227	c6.jpg	114
167.03	2	5_2	2	0.9521666	c24.jpg	114
175.06	2	5_1	1	0.705923	c22.jpg	114
179.47	2	5_3	2	0.6847799	c20.jpg	114
186.77	2	1_1	1	1.033149	c13.jpg	114
192.98	2	5_3	2	0.8096811	c9.jpg	114
198.1	2	5_3	2	1.03196	c24.jpg	114
205.41	2	5_3	2	0.9073405	c7.jpg	114
210.17	2	5_4	2	0.7585765	c12.jpg	114
215.3	2	1_1	1	0.8042783	c1.jpg	114
220.43	2	5_3	2	1.007724	c23.jpg	114
225.19	2	5_2	2	1.093948	c4.jpg	114
230.68	2	5_4	2	0.8166067	c24.jpg	114
234.73	2	1_1	1	1.032088	c8.jpg	114
241.31	2	5_3	2	0.7353434	c14.jpg	114
246.08	2	1_1	1	1.194228	c11.jpg	114
253.76	2	5_4	2	0.7080306	c9.jpg	114
259.25	2	5_4	2	0.9148702	c7.jpg	114
265.83	2	5_3	2	0.8151156	c4.jpg	114
269.87	2	5_2	2	1.205876	c22.jpg	114
276.1	2	5_4	2	0.8114294	c20.jpg	114
280.13	2	5_2	2	1.017016	c15.jpg	114
287.44	2	5_3	2	0.7447464	c15.jpg	114
294.02	2	5_4	2	0.7769209	c4.jpg	114
299.88	2	5_5	2	0.9169493	c9.jpg	114
304.64	2	5_4	2	0.7934293	c23.jpg	114
311.22	2	5_5	2	0.7116449	c4.jpg	114
317.79	2	5_5	2	0.7526993	c23.jpg	114
323.29	2	5_4	2	0.7943601	c5.jpg	114
330.23	2	5_5	2	0.6014823	c24.jpg	114
338.27	2	5_4	2	0.6900557	c14.jpg	114
344.14	2	5_5	2	0.7712589	c3.jpg	114
352.18	2	5_5	2	0.8541468	c14.jpg	114
358.4	2	5_4	2	0.7485114	c15.jpg	114
364.25	2	1_1	1	0.9130644	c21.jpg	114
371.55	2	1_1	1	0.7049717	c19.jpg	114
377.05	2	5_3	2	0.8270921	c22.jpg	114
381.44	2	5_5	2	0.7754529	c20.jpg	114
387.67	2	1_1	1	0.7146005	c10.jpg	114
391.7	2	5_5	2	1.143168	c5.jpg	114
399.37	2	5_5	2	0.8052821	c12.jpg	114
407.05	2	5_5	2	0.7838604	c15.jpg	114
413.99	2	1_1	1	0.8034141	c17.jpg	114
418.4	2	5_5	2	0.7872641	c7.jpg	114
423.52	2	5_4	2	0.7342945	c22.jpg	114
431.2	2	5_5	2	0.7461006	c22.jpg	114
3.106	2	5_1	1	0.91915	c9.jpg	115
8.307	2	1_1	1	1.10565	c16.jpg	115
14.917	2	5_1	1	1.107014	c22.jpg	115
19.003	2	5_1	1	1.041501	c4.jpg	115
26.672	2	5_1	1	0.9535204	c15.jpg	115
34.004	2	1_1	1	1.081695	c13.jpg	115
38.06	2	5_1	1	1.11951	c24.jpg	115
44.299	2	1_1	1	0.9152061	c10.jpg	115
50.16	2	5_2	2	1.164503	c24.jpg	115
58.211	2	5_1	1	1.495325	c5.jpg	115
63.372	2	1_1	1	1.974549	c8.jpg	115
68.882	2	5_1	1	0.6873333	c12.jpg	115
76.922	2	5_2	2	0.9883412	c12.jpg	115
80.95	2	5_2	2	1.181146	c22.jpg	115
86.447	2	5_1	1	0.9125801	c20.jpg	115
92.323	2	5_1	1	1.569391	c7.jpg	115
97.085	2	5_2	2	1.239752	c4.jpg	115
103.317	2	1_1	1	0.9482167	c19.jpg	115
108.071	2	5_3	2	1.034567	c24.jpg	115
116.129	2	5_1	1	1.027025	c14.jpg	115
120.899	2	5_4	2	0.8942852	c24.jpg	115
126.764	2	5_1	1	1.193314	c3.jpg	115
132.988	2	5_2	2	1.198324	c9.jpg	115
141.029	2	5_2	2	1.040524	c14.jpg	115
147.976	2	5_2	2	1.407125	c7.jpg	115
156.016	2	5_2	2	0.8617223	c5.jpg	115
160.409	2	5_2	2	0.9092779	c15.jpg	115
164.799	2	5_3	2	0.8841697	c4.jpg	115
169.217	2	5_1	1	0.9786732	c23.jpg	115
175.817	2	1_1	1	1.124296	c21.jpg	115
180.946	2	5_3	2	1.038683	c12.jpg	115
186.808	2	5_3	2	0.8030258	c22.jpg	115
194.111	2	5_4	2	0.6813983	c22.jpg	115
198.151	2	5_2	2	1.140502	c23.jpg	115
204.377	2	5_2	2	1.180828	c3.jpg	115
211.685	2	5_2	2	1.147165	c20.jpg	115
219.375	2	1_1	1	1.009213	c6.jpg	115
223.784	2	5_3	2	0.9627793	c23.jpg	115
231.456	2	5_4	2	0.8095142	c23.jpg	115
236.946	2	5_4	2	1.664927	c12.jpg	115
243.899	2	5_5	2	0.6990329	c12.jpg	115
249.762	2	5_3	2	1.318354	c7.jpg	115
257.436	2	5_3	2	1.083567	c5.jpg	115
264.748	2	5_3	2	1.129628	c20.jpg	115
269.872	2	5_3	2	1.419558	c15.jpg	115
277.543	2	5_4	2	0.7626812	c7.jpg	115
284.5	2	5_3	2	1.197464	c3.jpg	115
291.1	2	1_1	1	0.8649014	c17.jpg	115
298.049	2	5_3	2	1.454071	c9.jpg	115
303.906	2	5_4	2	1.005465	c3.jpg	115
307.948	2	5_4	2	0.856107	c9.jpg	115
314.163	2	5_5	2	0.7937083	c9.jpg	115
320.744	2	5_5	2	1.033833	c7.jpg	115
326.26	2	1_1	1	1.179334	c18.jpg	115
333.569	2	5_4	2	0.8137164	c5.jpg	115
340.154	2	5_5	2	0.9143936	c22.jpg	115
345.638	2	5_4	2	0.8819337	c15.jpg	115
352.588	2	5_5	2	1.053308	c23.jpg	115
357.357	2	5_4	2	1.146897	c4.jpg	115
361.752	2	5_5	2	0.6599568	c4.jpg	115
366.513	2	5_3	2	1.065747	c14.jpg	115
371.634	2	5_4	2	0.8702992	c20.jpg	115
376.395	2	5_5	2	0.753887	c5.jpg	115
383.359	2	1_1	1	1.035281	c2.jpg	115
389.574	2	5_5	2	0.7500344	c20.jpg	115
393.982	2	1_1	1	1.077037	c11.jpg	115
402.035	2	5_5	2	0.9655686	c3.jpg	115
406.101	2	1_1	1	1.760183	c1.jpg	115
413.772	2	5_4	2	0.7755857	c14.jpg	115
419.257	2	5_5	2	0.8608112	c24.jpg	115
425.846	2	5_5	2	0.8323474	c14.jpg	115
433.152	2	5_5	2	0.8139565	c15.jpg	115
3.1	2	5_1	1	0.6693497	c14.jpg	118
7.5	2	5_1	1	0.8518736	c5.jpg	118
15.5	2	1_1	1	0.9086649	c6.jpg	118
19.6	2	1_1	1	1.149429	c1.jpg	118
26.9	2	5_1	1	0.8739152	c15.jpg	118
32.4	2	5_1	1	1.545993	c4.jpg	118
38.6	2	5_2	2	0.8850246	c5.jpg	118
42.7	2	5_1	1	1.089738	c7.jpg	118
47.1	2	5_2	2	1.354676	c14.jpg	118
54.7	2	5_1	1	0.9285015	c24.jpg	118
59.5	2	5_2	2	0.9153496	c4.jpg	118
66.1	2	5_2	2	1.090544	c15.jpg	118
72.3	2	5_1	1	1.026689	c3.jpg	118
79.6	2	1_1	1	0.937802	c13.jpg	118
87.3	2	5_3	2	1.047851	c14.jpg	118
91.3	2	1_1	1	1.189886	c2.jpg	118
95.7	2	5_1	1	1.240768	c12.jpg	118
101.6	2	5_2	2	1.333645	c3.jpg	118
108.1	2	5_1	1	0.9658925	c22.jpg	118
112.5	2	5_2	NA	NA	c7.jpg	118
117.3	2	5_1	1	0.8941614	c23.jpg	118
124.2	2	5_3	2	1.026459	c15.jpg	118
130.5	2	5_3	2	1.302353	c5.jpg	118
137.4	2	5_4	2	1.318781	c14.jpg	118
143.3	2	5_4	2	1.08965	c5.jpg	118
148.7	2	1_1	1	1.338041	c11.jpg	118
154.2	2	5_2	2	1.245945	c12.jpg	118
161.9	2	5_3	2	1.415782	c4.jpg	118
168.5	2	5_3	2	1.374378	c3.jpg	118
174.3	2	5_4	2	1.559329	c3.jpg	118
179.5	2	5_4	2	1.324557	c15.jpg	118
185	2	5_5	2	1.395307	c5.jpg	118
193	2	5_2	2	1.715695	c23.jpg	118
201	2	5_1	1	0.8973537	c20.jpg	118
206.1	2	1_1	1	1.02775	c17.jpg	118
211.3	2	5_2	2	1.030331	c20.jpg	118
216	2	5_2	2	1.239206	c24.jpg	118
221.9	2	5_3	2	0.9570342	c23.jpg	118
229.9	2	5_3	2	0.7668664	c12.jpg	118
236.9	2	5_5	2	0.9810973	c3.jpg	118
243.8	2	5_4	2	1.019617	c4.jpg	118
248.6	2	1_1	1	1.291129	c18.jpg	118
254.4	2	5_4	2	0.9441723	c23.jpg	118
261.4	2	5_2	2	1.297911	c22.jpg	118
268.7	2	5_3	2	1.058406	c24.jpg	118
274.9	2	5_5	2	1.070443	c4.jpg	118
281.5	2	1_1	1	0.9520861	c10.jpg	118
289.5	2	5_1	1	0.8523402	c9.jpg	118
293.9	2	5_3	2	1.203644	c7.jpg	118
299	2	5_2	2	0.9971843	c9.jpg	118
305.3	2	5_4	2	0.9062019	c12.jpg	118
309.3	2	1_1	1	0.9561346	c21.jpg	118
315.5	2	5_5	2	0.7171317	c23.jpg	118
321	2	5_3	2	0.6806475	c22.jpg	118
326.5	2	5_5	2	1.027343	c14.jpg	118
334.2	2	5_3	2	0.856918	c20.jpg	118
340	2	5_4	2	1.004528	c20.jpg	118
344.4	2	5_5	2	1.092262	c15.jpg	118
348.5	2	5_5	2	1.157962	c12.jpg	118
353.6	2	5_5	2	0.6622794	c20.jpg	118
361.3	2	1_1	1	0.8312285	c8.jpg	118
367.8	2	5_4	2	0.8003326	c24.jpg	118
372.6	2	1_1	1	1.033495	c19.jpg	118
379.6	2	5_4	2	0.8692623	c7.jpg	118
383.6	2	5_4	2	0.7760601	c22.jpg	118
390.9	2	5_3	2	1.067283	c9.jpg	118
398.6	2	5_5	2	0.9692908	c24.jpg	118
403.7	2	5_5	2	0.8799551	c7.jpg	118
410.3	2	5_5	2	0.8641901	c22.jpg	118
417.6	2	5_4	2	0.9487507	c9.jpg	118
425.6	2	1_1	1	0.8927987	c16.jpg	118
430.4	2	5_5	2	1.079183	c9.jpg	118
3	2	5_1	NA	NA	c15.jpg	121
11.1	2	5_1	1	1.925137	c24.jpg	121
16.6	2	1_1	NA	NA	c13.jpg	121
22.1	2	5_1	NA	NA	c7.jpg	121
28.3	2	5_1	NA	NA	c23.jpg	121
34.5	2	5_1	1	1.633854	c12.jpg	121
39.6	2	5_1	NA	NA	c20.jpg	121
43.7	2	5_1	1	1.43385	c4.jpg	121
51	2	5_1	NA	NA	c3.jpg	121
56.1	2	5_2	2	1.270364	c15.jpg	121
60.9	2	5_1	NA	NA	c9.jpg	121
67.1	2	5_2	2	1.569313	c7.jpg	121
75.1	2	5_2	NA	NA	c9.jpg	121
80.3	2	5_1	NA	NA	c22.jpg	121
86.8	2	5_2	NA	NA	c20.jpg	121
94.5	2	1_1	NA	NA	c16.jpg	121
101.5	2	5_2	NA	NA	c4.jpg	121
109.1	2	5_1	NA	NA	c5.jpg	121
113.9	2	5_3	NA	NA	c15.jpg	121
120.5	2	1_1	1	1.846656	c17.jpg	121
126.7	2	1_1	NA	NA	c19.jpg	121
134	2	5_2	2	1.140783	c12.jpg	121
139.5	2	5_3	2	1.757195	c4.jpg	121
146.4	2	1_1	NA	NA	c8.jpg	121
153	2	5_3	2	1.076845	c7.jpg	121
157.4	2	5_2	NA	NA	c24.jpg	121
162.9	2	1_1	NA	NA	c10.jpg	121
170.9	2	5_3	2	1.123327	c20.jpg	121
177.9	2	5_3	NA	NA	c12.jpg	121
184.8	2	5_4	2	1.223517	c7.jpg	121
191.4	2	5_4	2	1.954757	c4.jpg	121
198.7	2	5_3	NA	NA	c9.jpg	121
203.1	2	1_1	NA	NA	c1.jpg	121
207.1	2	5_3	NA	NA	c24.jpg	121
211.9	2	5_4	2	1.498417	c20.jpg	121
219.2	2	5_5	2	0.9700776	c20.jpg	121
225.8	2	1_1	1	1.619751	c21.jpg	121
231.6	2	5_4	2	1.425031	c15.jpg	121
236.7	2	5_2	2	1.544671	c22.jpg	121
243	2	5_1	NA	NA	c14.jpg	121
248.8	2	5_2	2	1.921127	c5.jpg	121
256.1	2	5_3	2	1.896935	c22.jpg	121
263.8	2	5_2	2	1.247681	c14.jpg	121
269.6	2	5_2	NA	NA	c3.jpg	121
275.5	2	5_3	NA	NA	c14.jpg	121
279.5	2	5_4	NA	NA	c22.jpg	121
286.5	2	5_2	NA	NA	c23.jpg	121
294.5	2	5_5	2	1.102018	c4.jpg	121
298.5	2	5_3	2	1.682174	c5.jpg	121
305.5	2	5_5	2	1.456445	c7.jpg	121
312.8	2	5_4	NA	NA	c14.jpg	121
318.3	2	5_3	NA	NA	c23.jpg	121
322.3	2	1_1	NA	NA	c18.jpg	121
327.5	2	1_1	NA	NA	c2.jpg	121
332.2	2	5_4	NA	NA	c12.jpg	121
337	2	5_3	NA	NA	c3.jpg	121
345	2	5_4	NA	NA	c23.jpg	121
349.4	2	1_1	NA	NA	c11.jpg	121
353.8	2	5_5	NA	NA	c14.jpg	121
359	2	5_4	NA	NA	c24.jpg	121
363.7	2	1_1	NA	NA	c6.jpg	121
371.4	2	5_4	NA	NA	c3.jpg	121
377.2	2	5_5	NA	NA	c12.jpg	121
381.6	2	5_4	NA	NA	c5.jpg	121
386	2	5_5	NA	NA	c22.jpg	121
393.7	2	5_5	2	1.692586	c15.jpg	121
401.4	2	5_5	NA	NA	c3.jpg	121
405.4	2	5_5	NA	NA	c23.jpg	121
410.9	2	5_4	NA	NA	c9.jpg	121
417.5	2	5_5	2	1.801341	c5.jpg	121
423.7	2	5_5	2	1.942431	c24.jpg	121
431.7	2	5_5	2	0.6303178	c9.jpg	121
3.1	2	5_1	NA	NA	c5.jpg	122
10.8	2	5_1	1	0.8866702	c15.jpg	122
18.8	2	5_1	1	0.6508481	c12.jpg	122
23.6	2	5_2	2	0.9759789	c15.jpg	122
31.3	2	1_1	1	0.8794698	c8.jpg	122
39.3	2	5_1	1	0.8511644	c20.jpg	122
43.7	2	1_1	1	0.9448991	c6.jpg	122
49.6	2	5_1	1	1.038792	c9.jpg	122
54	2	5_1	1	1.000484	c4.jpg	122
59.8	2	1_1	1	1.175592	c18.jpg	122
65.3	2	5_2	2	1.181204	c9.jpg	122
71.5	2	5_1	1	0.8417331	c23.jpg	122
77.7	2	5_1	1	1.061973	c7.jpg	122
82.9	2	5_2	2	1.099269	c7.jpg	122
89.8	2	5_2	1	1.821582	c12.jpg	122
95.7	2	5_3	2	0.7183174	c9.jpg	122
99.7	2	5_2	2	1.376566	c20.jpg	122
104.8	2	5_1	1	0.9447924	c24.jpg	122
110.3	2	1_1	1	1.661008	c21.jpg	122
117.6	2	5_1	1	1.235487	c3.jpg	122
125.3	2	5_4	2	0.8261991	c9.jpg	122
132.6	2	5_3	2	0.997503	c7.jpg	122
139.5	2	5_2	NA	NA	c5.jpg	122
146.1	2	5_2	2	0.9269646	c24.jpg	122
152.7	2	5_2	2	1.177203	c23.jpg	122
158.2	2	5_1	1	0.9441097	c14.jpg	122
163.3	2	5_3	2	0.8369899	c5.jpg	122
170.6	2	1_1	1	1.541728	c2.jpg	122
175.8	2	5_2	2	1.142553	c4.jpg	122
183.8	2	1_1	2	1.06661	c11.jpg	122
190.7	2	5_1	1	1.177576	c22.jpg	122
195.9	2	5_4	2	1.007398	c5.jpg	122
203.9	2	5_3	2	0.9944679	c24.jpg	122
207.9	2	5_3	2	1.337383	c15.jpg	122
215.2	2	5_2	2	0.8980152	c14.jpg	122
219.3	2	5_4	2	1.319035	c7.jpg	122
223.7	2	5_3	2	0.6989167	c23.jpg	122
229.9	2	1_1	1	1.094423	c1.jpg	122
236.5	2	1_1	1	1.031593	c13.jpg	122
244.2	2	5_4	2	0.7188218	c24.jpg	122
250.7	2	5_4	2	0.7442177	c23.jpg	122
258.8	2	5_3	2	0.8710441	c14.jpg	122
264.6	2	5_3	2	0.9543794	c12.jpg	122
269.4	2	5_2	NA	NA	c3.jpg	122
275.6	2	5_5	2	0.6699609	c24.jpg	122
280.4	2	5_2	2	1.012729	c22.jpg	122
288.4	2	5_4	2	1.04152	c12.jpg	122
294.6	2	5_3	2	1.056161	c20.jpg	122
300.1	2	5_3	2	0.7820998	c22.jpg	122
305.6	2	5_3	2	1.576573	c3.jpg	122
311.5	2	5_3	2	0.897066	c4.jpg	122
315.5	2	5_5	2	0.6613383	c12.jpg	122
322.8	2	1_1	1	0.7542493	c16.jpg	122
327.6	2	5_4	2	1.438764	c3.jpg	122
332.3	2	5_4	2	0.9682557	c22.jpg	122
336.7	2	5_5	2	0.552111	c22.jpg	122
341.9	2	5_4	2	0.622723	c20.jpg	122
346.3	2	5_5	2	0.8209943	c3.jpg	122
352.1	2	5_5	2	0.8011197	c7.jpg	122
359.1	2	5_5	2	0.9181271	c9.jpg	122
366	2	5_4	2	1.49027	c15.jpg	122
371.5	2	5_4	2	0.9843531	c14.jpg	122
378.1	2	5_5	2	1.001362	c5.jpg	122
385	2	5_5	2	0.6002687	c20.jpg	122
392.3	2	5_4	2	0.827799	c4.jpg	122
398.9	2	1_1	1	0.8323077	c17.jpg	122
405.1	2	1_1	1	0.7849062	c19.jpg	122
409.2	2	5_5	2	0.6674815	c4.jpg	122
413.9	2	5_5	2	0.8560977	c15.jpg	122
421.6	2	5_5	2	0.9049733	c14.jpg	122
425.6	2	5_5	2	1.047444	c23.jpg	122
433.3	2	1_1	1	0.9373522	c10.jpg	122
3.09	2	5_1	1	0.9174442	c14.jpg	125
7.17	2	5_1	1	0.6959779	c4.jpg	125
13.03	2	5_1	1	0.7091443	c15.jpg	125
20.73	2	5_1	1	1.086923	c9.jpg	125
28.77	2	5_1	1	0.7155136	c22.jpg	125
35.36	2	5_1	1	1.231142	c20.jpg	125
39.39	2	5_1	1	1.561669	c5.jpg	125
45.97	2	5_2	2	1.175525	c14.jpg	125
50.74	2	5_1	2	0.9820983	c7.jpg	125
56.25	2	5_1	1	1.085212	c3.jpg	125
64.3	2	5_1	1	0.8598265	c24.jpg	125
69.8	2	5_2	1	1.368723	c5.jpg	125
74.55	2	5_2	2	1.080077	c15.jpg	125
82.23	2	5_2	2	0.8066838	c4.jpg	125
88.45	2	5_1	1	1.18004	c23.jpg	125
92.84	2	5_3	2	0.834052	c4.jpg	125
100.51	2	5_1	1	1.275133	c12.jpg	125
104.9	2	5_2	2	1.229889	c12.jpg	125
110.76	2	1_1	2	1.00759	c11.jpg	125
116.25	2	5_3	2	0.8485237	c5.jpg	125
120.28	2	5_4	2	0.7951583	c4.jpg	125
124.68	2	5_3	2	0.7755578	c12.jpg	125
129.45	2	5_2	2	0.8000485	c22.jpg	125
135.67	2	5_2	2	0.9636118	c9.jpg	125
141.52	2	5_2	2	0.9260374	c23.jpg	125
148.83	2	1_1	1	0.8644756	c19.jpg	125
155.42	2	5_2	2	1.009219	c3.jpg	125
162.37	2	5_4	2	1.284788	c12.jpg	125
167.12	2	5_3	2	1.014548	c14.jpg	125
172.24	2	5_3	2	0.7891119	c15.jpg	125
180.28	2	5_2	2	0.98576	c20.jpg	125
185.41	2	5_2	1	1.648363	c24.jpg	125
190.55	2	5_3	2	1.298973	c3.jpg	125
194.59	2	5_4	2	0.885859	c15.jpg	125
202.65	2	1_1	1	1.055494	c1.jpg	125
207.42	2	5_5	2	1.070259	c15.jpg	125
215.45	2	5_3	2	1.047282	c23.jpg	125
222.76	2	5_3	2	0.7246951	c20.jpg	125
229.71	2	1_1	1	1.512807	c10.jpg	125
237.01	2	5_5	NA	NA	c4.jpg	125
242.49	2	5_3	2	1.352032	c9.jpg	125
249.45	2	1_1	1	1.043933	c13.jpg	125
253.84	2	5_3	2	1.099987	c22.jpg	125
257.87	2	5_4	2	0.7306664	c20.jpg	125
265.54	2	5_4	2	1.164888	c9.jpg	125
272.49	2	5_5	2	0.6498979	c20.jpg	125
278.34	2	1_1	1	0.8465317	c8.jpg	125
284.2	2	5_4	2	0.9354386	c22.jpg	125
290.42	2	1_1	1	1.004847	c6.jpg	125
298.47	2	1_1	1	1.154532	c21.jpg	125
305.41	2	5_4	2	0.767944	c5.jpg	125
310.91	2	5_4	2	0.9298388	c3.jpg	125
317.13	2	1_1	1	1.138099	c16.jpg	125
322.25	2	5_5	2	0.9969332	c22.jpg	125
329.56	2	5_2	2	1.407849	c7.jpg	125
336.15	2	5_4	2	0.9766225	c23.jpg	125
343.45	2	1_1	1	1.420666	c17.jpg	125
351.12	2	5_5	2	0.8757922	c23.jpg	125
356.25	2	1_1	1	1.417662	c18.jpg	125
360.29	2	1_1	2	1.74261	c2.jpg	125
366.5	2	5_3	2	1.118433	c7.jpg	125
371.98	2	5_5	2	1.324856	c12.jpg	125
376.75	2	5_4	2	1.40372	c14.jpg	125
383.69	2	5_4	2	0.9915	c7.jpg	125
390.27	2	5_3	2	1.315389	c24.jpg	125
396.85	2	5_5	2	1.181406	c14.jpg	125
404.15	2	5_5	2	0.6633655	c5.jpg	125
409.29	2	5_5	2	1.01177	c3.jpg	125
416.96	2	5_5	2	1.153243	c9.jpg	125
421.36	2	5_5	2	1.431436	c7.jpg	125
425.75	2	5_4	2	0.6731722	c24.jpg	125
431.96	2	5_5	2	0.8294428	c24.jpg	125
3.1	2	5_1	1	1.069679	c21.jpg	127
9.73	2	5_1	2	0.9455324	c11.jpg	127
17.42	2	5_1	1	1.069999	c13.jpg	127
21.49	2	1_1	1	1.299094	c12.jpg	127
29.55	2	5_1	1	1.600177	c2.jpg	127
34.69	2	5_1	1	1.35364	c10.jpg	127
40.91	2	5_1	1	1.209215	c16.jpg	127
48.6	2	1_1	1	1.00228	c20.jpg	127
53.72	2	5_1	1	1.498509	c6.jpg	127
59.6	2	5_1	1	1.452315	c1.jpg	127
64	2	5_2	NA	NA	c13.jpg	127
68.4	2	1_1	1	1.248138	c14.jpg	127
74.26	2	5_1	1	1.162511	c17.jpg	127
79.76	2	5_3	2	1.196511	c13.jpg	127
86.33	2	5_4	2	0.9776852	c13.jpg	127
94.01	2	5_2	2	1.544746	c10.jpg	127
99.86	2	5_2	2	0.9129684	c17.jpg	127
104.99	2	5_2	1	1.933799	c16.jpg	127
111.94	2	1_1	1	1.078011	c9.jpg	127
119.24	2	5_3	2	0.8643146	c17.jpg	127
124.74	2	1_1	1	1.53403	c4.jpg	127
128.79	2	5_2	1	1.618292	c1.jpg	127
136.48	2	5_1	1	1.057027	c18.jpg	127
143.06	2	5_3	2	1.04225	c16.jpg	127
151.1	2	5_2	2	1.38104	c21.jpg	127
158.41	2	5_1	1	1.003218	c8.jpg	127
162.44	2	5_2	2	0.9441559	c8.jpg	127
169.38	2	5_4	2	0.9570909	c16.jpg	127
176.33	2	1_1	1	1.223663	c15.jpg	127
183.27	2	5_2	2	1.228662	c18.jpg	127
188.76	2	5_3	2	1.126188	c10.jpg	127
193.54	2	5_1	1	1.935287	c19.jpg	127
200.86	2	1_1	1	1.192368	c22.jpg	127
205.25	2	5_2	2	1.728931	c19.jpg	127
211.1	2	5_2	2	1.874757	c6.jpg	127
215.13	2	5_3	2	1.004438	c19.jpg	127
221.34	2	5_3	2	1.225703	c18.jpg	127
228.64	2	5_3	2	1.293961	c21.jpg	127
232.7	2	1_1	1	0.8229339	c24.jpg	127
238.2	2	1_1	1	1.721771	c3.jpg	127
244.78	2	5_3	2	0.9731827	c8.jpg	127
250.63	2	5_3	2	1.302912	c6.jpg	127
256.85	2	5_2	1	1.029574	c11.jpg	127
262.71	2	1_1	1	1.415032	c7.jpg	127
267.48	2	5_2	1	1.005151	c2.jpg	127
272.23	2	5_4	2	1.075101	c10.jpg	127
280.28	2	5_3	1	1.478476	c1.jpg	127
288.31	2	5_3	2	1.012745	c11.jpg	127
293.07	2	5_4	2	1.251188	c21.jpg	127
299.3	2	5_3	2	1.141907	c2.jpg	127
304.79	2	1_1	1	1.171493	c23.jpg	127
311.03	2	1_1	1	1.275675	c5.jpg	127
318.69	2	5_5	2	1.194556	c21.jpg	127
326.72	2	5_4	2	1.223613	c2.jpg	127
330.75	2	5_4	2	1.184055	c8.jpg	127
335.9	2	5_4	2	1.331517	c1.jpg	127
340.29	2	5_4	2	1.766202	c18.jpg	127
346.86	2	5_5	2	1.32006	c10.jpg	127
351.62	2	5_4	2	1.018316	c6.jpg	127
358.57	2	5_5	2	1.066535	c6.jpg	127
363.69	2	5_5	2	1.038148	c8.jpg	127
368.8	2	5_4	2	1.002896	c11.jpg	127
373.55	2	5_5	2	1.427615	c11.jpg	127
381.23	2	5_4	2	1.198462	c17.jpg	127
387.81	2	5_5	2	1.27219	c13.jpg	127
395.13	2	5_5	2	0.8980645	c1.jpg	127
401.35	2	5_5	2	1.491567	c17.jpg	127
405.75	2	5_5	2	1.127525	c16.jpg	127
410.14	2	5_5	2	1.068445	c18.jpg	127
417.46	2	5_5	2	1.088542	c2.jpg	127
425.49	2	5_4	1	1.800051	c19.jpg	127
430.98	2	5_5	2	0.8258611	c19.jpg	127
3	2	5_1	1	0.8063553	c8.jpg	132
9.6	2	5_1	2	0.8236735	c17.jpg	132
17.7	2	5_2	2	0.8695863	c8.jpg	132
23.2	2	5_1	1	1.253952	c13.jpg	132
28.3	2	1_1	1	1.376799	c15.jpg	132
33.8	2	5_3	1	0.7218172	c8.jpg	132
41.5	2	5_1	1	1.168504	c21.jpg	132
48.8	2	5_1	1	1.238872	c2.jpg	132
53.2	2	5_1	1	1.025626	c6.jpg	132
60.9	2	5_2	2	1.26348	c21.jpg	132
65.7	2	1_1	1	1.303097	c3.jpg	132
70	2	5_1	1	1.475893	c18.jpg	132
76.6	2	5_1	1	1.039763	c16.jpg	132
83.6	2	5_1	1	1.104205	c11.jpg	132
88	2	5_2	2	1.39011	c18.jpg	132
94.5	2	1_1	1	1.72531	c9.jpg	132
102.6	2	1_1	1	1.477195	c14.jpg	132
107.3	2	1_1	1	0.9289587	c22.jpg	132
114.6	2	5_2	2	0.9379253	c11.jpg	132
122	2	5_1	1	1.145306	c1.jpg	132
127.4	2	5_3	2	1.0565	c18.jpg	132
132.2	2	5_1	1	0.8437781	c19.jpg	132
138.4	2	5_2	1	1.564585	c13.jpg	132
144.3	2	5_1	1	0.8696065	c10.jpg	132
149	2	5_3	2	1.267198	c13.jpg	132
156	2	5_3	2	1.069146	c21.jpg	132
160	2	5_2	2	1.570249	c1.jpg	132
167.3	2	5_2	2	1.106236	c6.jpg	132
175.3	2	5_4	2	1.398418	c8.jpg	132
181.2	2	5_3	2	1.046594	c1.jpg	132
187.4	2	5_4	2	1.404279	c18.jpg	132
192.6	2	5_4	2	0.7498661	c1.jpg	132
200.6	2	5_2	1	1.172214	c17.jpg	132
204.6	2	5_2	2	1.305221	c19.jpg	132
210.1	2	5_3	2	0.8935394	c6.jpg	132
214.1	2	5_2	NA	NA	c16.jpg	132
219.3	2	5_2	2	0.7937863	c2.jpg	132
226.2	2	5_4	2	0.8329057	c13.jpg	132
233.2	2	5_4	2	1.153594	c21.jpg	132
237.6	2	5_5	2	1.045392	c13.jpg	132
244.1	2	1_1	1	1.239351	c7.jpg	132
251.1	2	5_3	2	1.29352	c11.jpg	132
259.1	2	5_3	2	1.03344	c2.jpg	132
263.5	2	5_3	2	1.128035	c19.jpg	132
268.3	2	5_5	2	1.178705	c18.jpg	132
275.6	2	5_4	2	0.7119929	c6.jpg	132
281.5	2	5_5	2	0.7216465	c1.jpg	132
286.2	2	5_3	2	1.135501	c17.jpg	132
291.3	2	5_4	2	0.7636899	c19.jpg	132
297.6	2	5_5	2	0.8503723	c6.jpg	132
302	2	5_3	2	0.911689	c16.jpg	132
309.6	2	5_2	2	1.487655	c10.jpg	132
315.5	2	1_1	1	1.377445	c20.jpg	132
321.3	2	5_3	2	0.9424917	c10.jpg	132
328.3	2	5_5	2	0.8500254	c19.jpg	132
334.8	2	5_4	2	1.580997	c17.jpg	132
342.1	2	5_4	2	0.9141936	c16.jpg	132
347.6	2	1_1	1	1.594572	c4.jpg	132
351.7	2	5_4	2	1.583941	c2.jpg	132
355.7	2	5_5	2	0.8243744	c17.jpg	132
360.8	2	5_5	2	0.6372236	c16.jpg	132
366.7	2	5_5	2	0.8859022	c21.jpg	132
374.7	2	1_1	1	1.801762	c23.jpg	132
381.3	2	1_1	1	1.106893	c5.jpg	132
387.5	2	5_4	2	0.746699	c10.jpg	132
393.7	2	5_5	NA	NA	c8.jpg	132
397.8	2	5_5	2	0.801086	c10.jpg	132
404	2	1_1	1	1.240565	c12.jpg	132
409.1	2	1_1	1	1.74817	c24.jpg	132
416.8	2	5_5	2	1.806618	c2.jpg	132
424.5	2	5_4	2	1.560268	c11.jpg	132
432.2	2	5_5	2	0.8122557	c11.jpg	132
3.175	2	5_1	1	1.716937	c13.jpg	134
8.35	2	5_1	1	1.477494	c18.jpg	134
15.302	2	1_1	1	0.9280277	c5.jpg	134
21.186	2	5_2	2	1.18273	c18.jpg	134
28.148	2	5_1	1	1.482347	c1.jpg	134
34.021	2	5_1	1	0.9294558	c11.jpg	134
38.431	2	5_1	1	1.658038	c21.jpg	134
42.836	2	1_1	1	1.463164	c3.jpg	134
47.237	2	5_2	2	1.44208	c11.jpg	134
51.291	2	5_1	1	1.95952	c2.jpg	134
55.349	2	5_1	1	1.479381	c19.jpg	134
60.857	2	5_1	1	1.583282	c6.jpg	134
68.894	2	5_3	2	1.066234	c18.jpg	134
76.933	2	5_4	2	1.47019	c18.jpg	134
82.058	2	5_1	1	1.87331	c10.jpg	134
86.093	2	5_1	NA	NA	c8.jpg	134
93.767	2	5_1	1	0.8779109	c16.jpg	134
101.805	2	5_2	1	1.182174	c13.jpg	134
108.015	2	5_2	2	1.680546	c16.jpg	134
115.327	2	5_2	NA	NA	c1.jpg	134
122.638	2	5_2	2	1.368878	c19.jpg	134
128.497	2	5_3	2	1.487034	c1.jpg	134
133.983	2	5_2	2	1.333081	c21.jpg	134
140.564	2	5_3	2	1.274172	c13.jpg	134
148.604	2	5_3	2	1.173693	c11.jpg	134
156.281	2	5_2	2	1.314858	c2.jpg	134
163.585	2	5_1	NA	NA	c17.jpg	134
168.338	2	5_4	2	0.9639112	c11.jpg	134
173.828	2	1_1	NA	NA	c22.jpg	134
177.858	2	5_3	2	1.079143	c19.jpg	134
184.432	2	5_4	2	0.8772236	c13.jpg	134
190.289	2	1_1	2	1.422771	c9.jpg	134
197.245	2	5_3	2	1.968416	c2.jpg	134
203.844	2	5_4	NA	NA	c2.jpg	134
210.053	2	5_2	2	1.147935	c8.jpg	134
215.171	2	1_1	1	1.936537	c14.jpg	134
222.48	2	1_1	1	1.457882	c15.jpg	134
229.064	2	5_5	2	0.8344793	c18.jpg	134
235.64	2	5_5	NA	NA	c13.jpg	134
242.951	2	5_2	1	1.020561	c10.jpg	134
249.9	2	5_2	NA	NA	c6.jpg	134
256.112	2	5_3	2	1.275886	c6.jpg	134
262.332	2	5_3	2	1.502692	c21.jpg	134
266.721	2	5_2	1	1.64136	c17.jpg	134
274.031	2	5_4	2	1.195756	c19.jpg	134
279.524	2	5_3	2	0.7983914	c8.jpg	134
285.381	2	5_3	2	1.061296	c17.jpg	134
291.592	2	5_4	2	1.08317	c21.jpg	134
296.347	2	5_3	NA	NA	c10.jpg	134
301.114	2	5_5	1	3.09E-04	c2.jpg	134
308.054	2	5_4	2	0.8871138	c8.jpg	134
315.722	2	5_4	2	1.375082	c10.jpg	134
320.127	2	1_1	NA	NA	c12.jpg	134
326.337	2	5_3	2	1.336243	c16.jpg	134
330.37	2	1_1	1	1.12026	c24.jpg	134
335.862	2	1_1	1	1.250322	c4.jpg	134
343.893	2	5_4	1	1.139471	c6.jpg	134
350.465	2	5_4	2	1.071503	c17.jpg	134
358.513	2	1_1	1	1.348591	c7.jpg	134
363.283	2	1_1	NA	NA	c23.jpg	134
368.411	2	5_4	2	0.9088413	c16.jpg	134
373.538	2	5_5	NA	NA	c19.jpg	134
378.658	2	5_5	2	0.799116	c8.jpg	134
383.436	2	5_4	2	1.46242	c1.jpg	134
389.292	2	5_5	2	1.045502	c11.jpg	134
393.687	2	5_5	NA	NA	c21.jpg	134
400.633	2	5_5	2	1.432687	c17.jpg	134
405.399	2	5_5	2	1.506909	c6.jpg	134
413.11	2	5_5	NA	NA	c1.jpg	134
417.142	2	1_1	2	1.234928	c20.jpg	134
424.81	2	5_5	2	1.502367	c10.jpg	134
430.298	2	5_5	NA	NA	c16.jpg	134
3.1	2	5_1	1	1.864981	c14.jpg	135
7.9	2	1_1	NA	NA	c17.jpg	135
14.5	2	1_1	1	1.292956	c16.jpg	135
21.5	2	5_2	1	1.119033	c14.jpg	135
26.3	2	5_1	NA	NA	c9.jpg	135
34.3	2	5_1	1	1.169915	c20.jpg	135
39.1	2	5_1	1	0.8886783	c24.jpg	135
44.2	2	5_1	1	1.355921	c7.jpg	135
51.2	2	5_1	1	1.039084	c15.jpg	135
55.6	2	5_2	2	1.733158	c7.jpg	135
61.1	2	5_1	1	1.16868	c12.jpg	135
68.7	2	5_3	1	1.032866	c14.jpg	135
73.9	2	5_4	1	0.822973	c14.jpg	135
80.8	2	5_2	2	1.448155	c20.jpg	135
84.9	2	5_1	NA	NA	c23.jpg	135
90.7	2	5_2	2	1.144633	c12.jpg	135
96.6	2	5_2	2	1.107623	c15.jpg	135
101	2	5_1	1	1.398474	c5.jpg	135
108.3	2	5_2	2	1.323256	c5.jpg	135
112.3	2	5_1	1	1.020975	c4.jpg	135
117.1	2	1_1	1	1.226347	c1.jpg	135
121.9	2	5_3	2	0.6922375	c20.jpg	135
128.5	2	5_2	2	1.547565	c23.jpg	135
135.1	2	5_1	2	1.377295	c22.jpg	135
139.4	2	5_3	2	1.316784	c5.jpg	135
144.9	2	5_3	2	1.149821	c23.jpg	135
151.9	2	5_3	2	0.9869863	c15.jpg	135
155.9	2	5_2	2	1.16915	c22.jpg	135
160.3	2	1_1	1	1.660925	c10.jpg	135
167.6	2	5_4	2	1.114213	c23.jpg	135
171.7	2	5_2	2	1.293188	c4.jpg	135
177.2	2	5_3	2	1.094357	c22.jpg	135
184.5	2	5_1	1	1.59301	c3.jpg	135
189.6	2	5_5	2	0.8623325	c23.jpg	135
195.8	2	5_3	2	1.588923	c7.jpg	135
202.4	2	5_4	2	0.994345	c20.jpg	135
208.6	2	5_2	1	1.550118	c9.jpg	135
214.8	2	5_3	2	1.176959	c9.jpg	135
222.2	2	5_3	2	1.935624	c4.jpg	135
226.9	2	5_4	2	1.19793	c7.jpg	135
232.4	2	5_4	2	1.044234	c15.jpg	135
236.8	2	5_2	2	1.401925	c3.jpg	135
242.7	2	5_4	2	1.330831	c22.jpg	135
247.8	2	5_5	2	0.8705671	c20.jpg	135
253.7	2	5_3	2	1.145729	c3.jpg	135
261.3	2	5_4	2	1.127238	c4.jpg	135
269	2	1_1	1	1.693759	c13.jpg	135
274.1	2	1_1	NA	NA	c18.jpg	135
278.2	2	5_4	2	0.7943326	c5.jpg	135
285.5	2	5_5	NA	NA	c14.jpg	135
293.2	2	5_3	2	1.419591	c12.jpg	135
301.2	2	5_2	1	1.602648	c24.jpg	135
307.8	2	1_1	1	1.913339	c11.jpg	135
313.6	2	5_5	2	0.7298982	c15.jpg	135
317.7	2	5_5	2	0.8778824	c7.jpg	135
323.9	2	5_4	2	1.235223	c3.jpg	135
329	2	5_5	2	0.8184265	c22.jpg	135
336.7	2	5_5	2	0.7939132	c5.jpg	135
342.9	2	5_4	2	1.58587	c12.jpg	135
350.2	2	5_5	2	0.8350597	c4.jpg	135
356.8	2	5_4	2	1.009037	c9.jpg	135
364.8	2	5_5	2	1.565634	c12.jpg	135
372.9	2	1_1	1	1.106058	c2.jpg	135
380.9	2	1_1	1	1.393569	c19.jpg	135
385.3	2	5_5	2	1.638205	c9.jpg	135
391.2	2	5_3	2	1.682478	c24.jpg	135
396.7	2	1_1	1	1.342998	c6.jpg	135
404.4	2	1_1	1	1.565812	c8.jpg	135
409.9	2	5_5	2	1.429241	c3.jpg	135
416.8	2	5_4	1	1.318224	c24.jpg	135
423.7	2	5_5	2	1.224096	c24.jpg	135
431.8	2	1_1	1	1.363434	c21.jpg	135
3	2	5_1	1	0.853	c4.jpg	141
9.55	2	5_1	1	0.962	c9.jpg	141
14.3	2	5_1	1	1.31	c3.jpg	141
19.7	2	5_1	1	1.09	c20.jpg	141
25.9	2	5_1	1	1.18	c5.jpg	141
29.9	2	5_1	1	1.16	c12.jpg	141
33.9	2	5_2	2	1.03	c12.jpg	141
38.3	2	5_1	1	0.971	c24.jpg	141
43.4	2	5_1	1	1.02	c23.jpg	141
50.6	2	5_1	1	1.06	c22.jpg	141
57.9	2	1_1	1	0.805	c6.jpg	141
62.3	2	5_2	2	1.15	c5.jpg	141
66.3	2	5_2	2	1.04	c22.jpg	141
70.3	2	5_1	1	1.13	c15.jpg	141
74.6	2	1_1	1	0.989	c2.jpg	141
82.3	2	5_2	2	1.18	c23.jpg	141
89.9	2	5_3	2	0.933	c12.jpg	141
94.3	2	5_2	2	1.21	c3.jpg	141
99.7	2	5_3	2	0.887	c23.jpg	141
104	2	5_4	2	1.09	c12.jpg	141
108	2	1_1	1	1.06	c19.jpg	141
115	2	5_3	2	0.934	c5.jpg	141
122	2	5_2	2	0.97	c24.jpg	141
127	2	5_2	2	1.52	c9.jpg	141
132	2	5_4	2	0.989	c23.jpg	141
140	2	5_1	1	1.32	c7.jpg	141
145	2	5_2	2	0.955	c20.jpg	141
151	2	1_1	1	1.12	c11.jpg	141
156	2	5_1	1	1.03	c14.jpg	141
164	2	5_5	2	1.14	c23.jpg	141
169	2	5_2	2	1.44	c7.jpg	141
175	2	5_3	2	1.06	c7.jpg	141
182	2	5_2	2	1.26	c14.jpg	141
189	2	5_2	2	1.02	c15.jpg	141
194	2	1_1	1	1.15	c10.jpg	141
199	2	1_1	1	1.5	c13.jpg	141
205	2	5_3	2	1.04	c9.jpg	141
212	2	5_3	2	0.968	c14.jpg	141
218	2	5_3	2	0.904	c15.jpg	141
225	2	1_1	1	1.22	c21.jpg	141
232	2	5_2	1	0.957	c4.jpg	141
238	2	5_4	2	0.92	c7.jpg	141
244	2	5_4	2	0.756	c14.jpg	141
249	2	5_3	2	1.04	c20.jpg	141
254	2	5_5	2	0.725	c14.jpg	141
262	2	5_3	2	0.976	c22.jpg	141
268	2	5_3	2	0.803	c24.jpg	141
274	2	5_3	2	0.995	c3.jpg	141
282	2	5_4	2	0.734	c22.jpg	141
289	2	5_4	2	0.825	c5.jpg	141
296	2	5_3	NA	NA	c4.jpg	141
303	2	1_1	1	0.951	c17.jpg	141
309	2	5_4	2	0.737	c20.jpg	141
316	2	5_5	2	1.01	c7.jpg	141
324	2	5_4	2	0.738	c4.jpg	141
330	2	5_4	2	0.868	c15.jpg	141
336	2	5_5	2	0.888	c22.jpg	141
343	2	5_5	2	0.717	c20.jpg	141
348	2	1_1	1	1.24	c16.jpg	141
356	2	5_4	2	0.82	c9.jpg	141
364	2	5_5	2	0.817	c9.jpg	141
372	2	5_5	2	0.749	c12.jpg	141
378	2	1_1	1	1.1	c1.jpg	141
382	2	1_1	1	0.968	c8.jpg	141
389	2	5_5	2	0.825	c4.jpg	141
395	2	5_4	2	1.03	c3.jpg	141
400	2	1_1	1	0.931	c18.jpg	141
404	2	5_4	2	0.855	c24.jpg	141
410	2	5_5	2	0.874	c3.jpg	141
417	2	5_5	2	0.75	c15.jpg	141
424	2	5_5	2	0.675	c5.jpg	141
431	2	5_5	2	0.936	c24.jpg	141
3.1	2	5_1	1	1.504681	c10.jpg	143
9	2	5_1	NA	NA	c11.jpg	143
15.9	2	5_1	2	0.3350067	c17.jpg	143
22.2	2	5_1	2	0.9394497	c21.jpg	143
26.2	2	5_1	2	0.3653032	c1.jpg	143
31.3	2	1_1	2	0.8547981	c14.jpg	143
36.1	2	5_1	2	0.7645149	c2.jpg	143
42.3	2	5_2	1	0.9377289	c2.jpg	143
50.4	2	5_2	2	1.035193	c21.jpg	143
56.6	2	5_2	1	0.8704534	c17.jpg	143
62.8	2	5_1	2	0.8893883	c16.jpg	143
68.6	2	5_2	1	1.167624	c11.jpg	143
73.4	2	1_1	2	1.199347	c15.jpg	143
79.6	2	5_3	1	0.9924669	c2.jpg	143
86.6	2	5_2	2	0.9475737	c10.jpg	143
92.1	2	5_4	1	1.050136	c2.jpg	143
100.1	2	5_3	2	1.113578	c10.jpg	143
104.5	2	5_4	1	0.8131772	c10.jpg	143
111.1	2	1_1	2	1.203746	c5.jpg	143
117.7	2	5_1	2	1.211659	c19.jpg	143
124.3	2	5_1	2	1.081436	c13.jpg	143
129	2	5_1	2	0.7262973	c18.jpg	143
136.3	2	5_2	1	1.022416	c18.jpg	143
140.4	2	1_1	2	1.332828	c9.jpg	143
147.7	2	1_1	2	1.024659	c12.jpg	143
153.1	2	5_2	1	1.033666	c19.jpg	143
161.2	2	5_2	2	1.350444	c16.jpg	143
168.1	2	1_1	2	1.592763	c22.jpg	143
172.2	2	5_1	2	1.176348	c6.jpg	143
179.8	2	1_1	2	1.214169	c23.jpg	143
184.9	2	5_1	2	1.026264	c8.jpg	143
191.5	2	5_3	1	1.545174	c21.jpg	143
195.5	2	5_3	1	0.9212106	c17.jpg	143
203.2	2	5_2	2	1.690898	c1.jpg	143
208.7	2	5_3	1	1.202736	c19.jpg	143
215.3	2	5_2	1	0.9281273	c13.jpg	143
219.7	2	5_4	1	0.7622557	c21.jpg	143
223.7	2	5_2	1	0.966952	c6.jpg	143
231.7	2	5_3	NA	NA	c13.jpg	143
239.1	2	5_5	1	0.8510074	c10.jpg	143
246.7	2	5_4	1	1.009788	c13.jpg	143
253.7	2	5_3	1	1.576477	c11.jpg	143
261.3	2	5_3	1	0.9155479	c16.jpg	143
268.6	2	1_1	2	1.131052	c20.jpg	143
273	2	5_4	1	1.090986	c11.jpg	143
280.3	2	1_1	1	0.8967868	c4.jpg	143
286.2	2	5_3	1	1.479258	c18.jpg	143
293.5	2	1_1	2	1.142367	c3.jpg	143
300.4	2	5_2	1	1.441202	c8.jpg	143
307.4	2	5_3	1	1.238554	c8.jpg	143
312.9	2	5_5	1	0.9984872	c13.jpg	143
317.3	2	5_5	1	0.9235654	c2.jpg	143
323.1	2	5_3	1	1.399117	c1.jpg	143
327.2	2	1_1	2	1.660598	c7.jpg	143
335.2	2	5_4	1	0.9201497	c8.jpg	143
341	2	5_4	1	0.8288331	c17.jpg	143
349.1	2	5_3	1	1.51746	c6.jpg	143
353.9	2	5_4	1	0.9060876	c16.jpg	143
358.3	2	5_4	1	1.231956	c19.jpg	143
363.4	2	5_4	1	0.8232107	c6.jpg	143
368.5	2	5_4	1	0.8271416	c18.jpg	143
374	2	5_5	1	0.6253503	c17.jpg	143
380.6	2	5_5	1	0.8199126	c21.jpg	143
386.1	2	5_5	1	0.7177883	c19.jpg	143
390.8	2	5_4	1	1.234565	c1.jpg	143
396	2	5_5	1	0.8901326	c18.jpg	143
400.4	2	5_5	1	0.7254454	c8.jpg	143
406.2	2	5_5	1	1.098331	c16.jpg	143
411	2	5_5	1	0.652676	c6.jpg	143
418.7	2	1_1	2	0.8842329	c24.jpg	143
426.3	2	5_5	1	1.589013	c1.jpg	143
432.6	2	5_5	1	1.032871	c11.jpg	143
3.078	2	5_1	1	1.079211	c21.jpg	146
7.889	2	5_1	1	1.310693	c13.jpg	146
15.933	2	5_1	1	1.079522	c10.jpg	146
22.91	2	5_2	2	1.29986	c10.jpg	146
30.213	2	5_1	NA	NA	c19.jpg	146
34.977	2	1_1	1	1.119669	c20.jpg	146
39.386	2	5_1	1	1.052752	c2.jpg	146
44.149	2	5_1	1	0.8927609	c6.jpg	146
48.919	2	5_1	1	0.8212158	c17.jpg	146
56.218	2	5_2	2	1.923948	c13.jpg	146
61.708	2	5_3	2	1.57956	c13.jpg	146
67.193	2	5_2	NA	NA	c17.jpg	146
73.418	2	5_1	2	0.8453986	c16.jpg	146
79.279	2	1_1	1	0.9042089	c22.jpg	146
87.319	2	5_2	1	1.616512	c6.jpg	146
92.447	2	5_1	1	1.207657	c8.jpg	146
99.747	2	5_2	NA	NA	c16.jpg	146
105.971	2	5_2	2	0.7300245	c2.jpg	146
111.091	2	5_1	1	1.183376	c11.jpg	146
115.128	2	5_2	1	0.9296276	c19.jpg	146
121.019	2	5_1	1	1.662772	c1.jpg	146
127.957	2	5_2	2	1.672329	c11.jpg	146
135.644	2	1_1	1	1.430061	c3.jpg	146
142.605	2	5_3	2	1.653697	c2.jpg	146
150.639	2	5_2	NA	NA	c8.jpg	146
155.042	2	5_3	2	1.254126	c11.jpg	146
163.081	2	5_4	1	1.138337	c13.jpg	146
169.668	2	1_1	2	1.372971	c14.jpg	146
177.334	2	1_1	1	1.138613	c12.jpg	146
183.917	2	5_3	1	1.8856	c17.jpg	146
189.049	2	5_1	1	1.37909	c18.jpg	146
197.087	2	5_3	2	0.9722919	c6.jpg	146
205.128	2	5_4	2	0.9859178	c6.jpg	146
209.156	2	5_3	2	1.102013	c10.jpg	146
216.834	2	5_2	1	1.514617	c1.jpg	146
221.952	2	5_4	2	1.793718	c11.jpg	146
228.159	2	5_2	2	1.348829	c18.jpg	146
233.644	2	5_3	2	1.867932	c16.jpg	146
240.592	2	5_4	2	0.5509717	c2.jpg	146
247.179	2	1_1	1	0.8072172	c7.jpg	146
253.39	2	5_2	2	1.533798	c21.jpg	146
261.063	2	5_3	1	1.524774	c8.jpg	146
265.098	2	1_1	1	0.9382259	c15.jpg	146
270.948	2	5_4	2	1.100296	c10.jpg	146
277.891	2	1_1	1	1.464519	c23.jpg	146
283.019	2	5_4	2	1.879753	c16.jpg	146
289.604	2	5_3	2	1.171572	c19.jpg	146
295.45	2	5_5	2	0.6743079	c11.jpg	146
300.574	2	5_4	2	0.8804859	c8.jpg	146
307.158	2	1_1	1	0.9668865	c5.jpg	146
311.925	2	5_5	NA	NA	c8.jpg	146
316.333	2	5_3	2	1.183387	c18.jpg	146
323.295	2	5_3	2	0.8291528	c1.jpg	146
327.69	2	5_4	2	0.7178387	c17.jpg	146
333.175	2	1_1	1	0.9709327	c4.jpg	146
338.672	2	1_1	1	1.600141	c24.jpg	146
345.977	2	5_4	1	0.7128471	c18.jpg	146
353.646	2	5_5	2	0.6008172	c13.jpg	146
359.134	2	5_3	2	1.15511	c21.jpg	146
365.712	2	1_1	1	1.514669	c9.jpg	146
369.75	2	5_5	2	1.808163	c17.jpg	146
375.985	2	5_5	2	1.04042	c2.jpg	146
383.294	2	5_5	2	0.6758146	c10.jpg	146
390.961	2	5_4	2	1.629978	c19.jpg	146
396.824	2	5_4	2	1.134834	c1.jpg	146
401.221	2	5_5	2	0.6736276	c6.jpg	146
407.065	2	5_4	2	1.455131	c21.jpg	146
411.472	2	5_5	2	1.412087	c1.jpg	146
415.513	2	5_5	2	1.58139	c16.jpg	146
419.547	2	5_5	2	1.477638	c21.jpg	146
425.764	2	5_5	2	0.621569	c18.jpg	146
430.529	2	5_5	2	0.9070615	c19.jpg	146
3.1	2	5_1	NA	NA	c5.jpg	147
7.5	2	1_1	1	1.596877	c8.jpg	147
14.5	2	5_1	NA	NA	c9.jpg	147
22.2	2	5_1	1	1.384464	c7.jpg	147
29.1	2	5_1	1	0.9877032	c15.jpg	147
33.5	2	5_1	1	1.122182	c4.jpg	147
41.2	2	5_1	1	1.059565	c22.jpg	147
48.1	2	5_1	NA	NA	c12.jpg	147
53.6	2	5_1	1	0.6291769	c3.jpg	147
59.1	2	1_1	1	0.9478204	c18.jpg	147
63.9	2	5_2	2	1.414844	c9.jpg	147
69.7	2	5_2	2	1.340377	c12.jpg	147
74.5	2	5_1	1	1.042178	c23.jpg	147
82.5	2	5_2	2	1.751484	c7.jpg	147
89.8	2	5_2	NA	NA	c22.jpg	147
95	2	5_1	1	1.25706	c24.jpg	147
99.7	2	5_2	2	1.420305	c3.jpg	147
104.1	2	5_1	1	1.251792	c14.jpg	147
110.3	2	5_2	2	1.003297	c14.jpg	147
118	2	5_2	2	0.9922797	c24.jpg	147
125.3	2	5_2	2	0.9216299	c15.jpg	147
132.6	2	5_1	NA	NA	c20.jpg	147
140.3	2	1_1	1	0.9292106	c6.jpg	147
144.3	2	1_1	1	1.137567	c10.jpg	147
152.4	2	5_2	2	1.351658	c4.jpg	147
160.4	2	5_3	2	1.036557	c3.jpg	147
164.4	2	5_2	1	1.027397	c5.jpg	147
171	2	5_4	2	0.8541275	c3.jpg	147
175.8	2	5_3	2	0.9016676	c4.jpg	147
179.8	2	1_1	1	0.9433698	c2.jpg	147
186	2	5_3	2	0.8671515	c14.jpg	147
194.1	2	5_4	2	1.110997	c4.jpg	147
201	2	5_2	2	1.767374	c20.jpg	147
208.7	2	5_3	2	0.8076372	c24.jpg	147
214.5	2	5_5	2	0.7382401	c3.jpg	147
218.6	2	5_4	2	0.8725953	c24.jpg	147
223.7	2	5_4	2	0.6807988	c14.jpg	147
229.9	2	5_2	2	1.61823	c23.jpg	147
237.9	2	5_3	2	0.5477678	c23.jpg	147
244.9	2	1_1	1	1.057967	c13.jpg	147
250	2	5_3	2	1.103037	c22.jpg	147
255.1	2	5_4	2	0.9577841	c22.jpg	147
261	2	1_1	1	1.647436	c1.jpg	147
266.8	2	1_1	1	0.9602995	c17.jpg	147
273.4	2	5_5	2	1.609428	c22.jpg	147
278.5	2	5_3	2	1.130559	c5.jpg	147
284.4	2	5_3	2	1.186895	c7.jpg	147
290.6	2	5_5	2	0.7327394	c14.jpg	147
296.1	2	5_3	2	1.643943	c9.jpg	147
302.7	2	5_3	2	0.8555729	c20.jpg	147
308.5	2	5_3	2	0.7541256	c12.jpg	147
313.6	2	5_3	2	1.22531	c15.jpg	147
320.2	2	5_4	2	0.7565176	c23.jpg	147
326.8	2	5_4	2	1.221133	c12.jpg	147
333.7	2	5_4	NA	NA	c9.jpg	147
339.2	2	5_4	2	0.7997887	c5.jpg	147
343.3	2	5_4	2	0.7624462	c7.jpg	147
349.8	2	1_1	1	1.056328	c16.jpg	147
357.5	2	1_1	2	0.9221724	c11.jpg	147
361.9	2	5_5	2	0.8738965	c12.jpg	147
366.3	2	5_5	2	0.653842	c5.jpg	147
372.5	2	1_1	1	0.8658624	c19.jpg	147
379.8	2	5_5	2	1.228229	c24.jpg	147
384.6	2	5_4	2	1.222882	c20.jpg	147
390.1	2	5_5	2	0.7428646	c4.jpg	147
398.1	2	5_5	2	0.7902769	c20.jpg	147
402.5	2	5_4	2	0.7127871	c15.jpg	147
406.5	2	1_1	1	1.70443	c21.jpg	147
412	2	5_5	2	1.197562	c15.jpg	147
419.3	2	5_5	2	1.393861	c23.jpg	147
425.5	2	5_5	2	1.223714	c9.jpg	147
430.3	2	5_5	2	1.327249	c7.jpg	147
3.1	2	5_1	1	1.274457	c9.jpg	151
10.1	2	1_1	1	0.6508183	c1.jpg	151
14.2	2	5_1	1	0.5615756	c3.jpg	151
20.1	2	5_1	1	0.6053628	c22.jpg	151
26.4	2	5_1	1	0.6246229	c5.jpg	151
30.8	2	5_1	1	0.809706	c23.jpg	151
36.6	2	5_1	1	0.7438987	c20.jpg	151
41.8	2	5_2	1	0.968518	c9.jpg	151
46.2	2	5_1	1	1.159525	c15.jpg	151
52.4	2	5_1	1	0.8542682	c24.jpg	151
60.1	2	1_1	1	0.7772753	c16.jpg	151
66	2	5_1	1	1.007868	c14.jpg	151
71.1	2	5_2	1	0.9744075	c24.jpg	151
78.4	2	5_3	2	0.9364184	c24.jpg	151
83.5	2	5_2	2	1.239458	c5.jpg	151
90.1	2	5_1	1	1.271963	c7.jpg	151
96.7	2	5_1	1	1.111911	c12.jpg	151
102.9	2	1_1	1	0.9047094	c19.jpg	151
107.7	2	5_2	2	0.8254498	c22.jpg	151
115	2	5_2	2	0.97617	c7.jpg	151
122.7	2	1_1	1	0.81321	c10.jpg	151
129.3	2	5_2	1	1.553828	c3.jpg	151
137.3	2	5_2	2	0.9813739	c20.jpg	151
142.8	2	5_1	1	0.991602	c4.jpg	151
149.8	2	5_3	2	0.7837326	c3.jpg	151
153.8	2	1_1	1	0.9691576	c17.jpg	151
159.3	2	1_1	1	0.8751429	c11.jpg	151
166.3	2	5_3	2	0.7010469	c7.jpg	151
170.3	2	5_2	2	0.8877628	c15.jpg	151
176.2	2	1_1	1	0.7868357	c6.jpg	151
184.2	2	5_2	1	1.031718	c23.jpg	151
188.6	2	5_2	2	1.006993	c12.jpg	151
196.3	2	5_3	2	0.6886687	c20.jpg	151
202.5	2	5_2	2	0.7716843	c4.jpg	151
210.5	2	5_4	2	0.8224229	c3.jpg	151
215.3	2	5_3	1	1.008685	c9.jpg	151
219.3	2	5_4	2	0.7017921	c20.jpg	151
224.8	2	5_2	1	1.118718	c14.jpg	151
229.6	2	5_5	2	0.7614717	c3.jpg	151
234.3	2	5_3	2	0.7853091	c12.jpg	151
242	2	5_4	2	0.6582617	c7.jpg	151
248.6	2	5_4	2	0.5995055	c24.jpg	151
253.3	2	5_4	2	0.7550537	c9.jpg	151
258.8	2	5_4	2	0.6985317	c12.jpg	151
266.5	2	5_3	2	0.670052	c14.jpg	151
271.2	2	1_1	1	1.110501	c21.jpg	151
278.9	2	1_1	2	0.7548297	c13.jpg	151
285.1	2	5_5	2	0.7490061	c7.jpg	151
292.4	2	5_3	2	0.7771026	c4.jpg	151
300.5	2	5_5	2	0.6728563	c9.jpg	151
305.6	2	5_3	2	0.7519433	c15.jpg	151
311.5	2	5_5	2	0.619999	c20.jpg	151
317.3	2	5_3	2	1.001251	c23.jpg	151
325.3	2	5_3	2	0.7570481	c5.jpg	151
330.8	2	5_3	2	0.6201679	c22.jpg	151
334.9	2	5_5	2	0.7398765	c24.jpg	151
342.9	2	5_4	2	0.721612	c14.jpg	151
348.4	2	5_4	2	0.6822979	c22.jpg	151
355.3	2	5_4	2	0.6914496	c23.jpg	151
362.7	2	1_1	1	0.9919261	c2.jpg	151
367.1	2	1_1	1	0.9263677	c8.jpg	151
374.4	2	5_4	2	0.8541008	c4.jpg	151
381	2	5_4	2	1.110505	c15.jpg	151
385.3	2	5_5	2	0.6306163	c15.jpg	151
389.4	2	5_5	2	0.7338535	c23.jpg	151
394.5	2	5_4	2	0.5312215	c5.jpg	151
400.7	2	5_5	2	0.5266706	c5.jpg	151
407.7	2	5_5	2	0.5026276	c22.jpg	151
414.6	2	5_5	2	0.7128876	c14.jpg	151
419	2	5_5	2	0.5544753	c12.jpg	151
426.3	2	5_5	2	0.6674148	c4.jpg	151
432.9	2	1_1	1	1.155147	c18.jpg	151
3.06	2	1_1	NA	NA	c7.jpg	153
10.76	2	1_1	1	1.292012	c12.jpg	153
17.36	2	5_1	2	1.949887	c1.jpg	153
24.7	2	5_1	2	1.64766	c16.jpg	153
28.73	2	5_1	NA	NA	c13.jpg	153
36.77	2	5_1	2	1.12652	c19.jpg	153
42.62	2	5_1	2	1.021467	c6.jpg	153
47.76	2	5_1	2	0.7169977	c2.jpg	153
52.16	2	1_1	2	1.666383	c15.jpg	153
57.29	2	5_1	2	0.8957845	c8.jpg	153
64.23	2	5_1	2	1.18114	c18.jpg	153
71.18	2	5_2	2	0.8695478	c13.jpg	153
76.31	2	5_3	1	1.887013	c13.jpg	153
81.81	2	5_2	2	0.9820169	c1.jpg	153
86.57	2	5_2	1	1.959476	c18.jpg	153
90.97	2	5_1	NA	NA	c10.jpg	153
95	2	5_3	1	1.122073	c18.jpg	153
101.21	2	5_1	2	0.9727839	c11.jpg	153
109.24	2	5_1	2	0.8499032	c21.jpg	153
116.54	2	5_2	1	1.538909	c10.jpg	153
123.84	2	1_1	2	1.26262	c22.jpg	153
129.69	2	1_1	2	1.122364	c4.jpg	153
134.09	2	5_2	2	1.181983	c19.jpg	153
139.93	2	5_2	1	1.356773	c16.jpg	153
146.52	2	5_2	NA	NA	c2.jpg	153
151.64	2	5_2	1	1.065719	c11.jpg	153
158.94	2	5_3	1	0.468243	c19.jpg	153
162.97	2	1_1	1	1.733169	c20.jpg	153
167	2	1_1	2	1.508852	c24.jpg	153
172.48	2	5_1	1	1.279149	c17.jpg	153
177.25	2	5_3	1	1.225393	c1.jpg	153
183.47	2	5_3	1	0.9459809	c16.jpg	153
188.24	2	5_3	NA	NA	c2.jpg	153
194.08	2	5_2	1	1.466614	c6.jpg	153
200.67	2	5_2	1	1.608604	c17.jpg	153
204.71	2	5_3	1	0.7350304	c17.jpg	153
209.11	2	5_4	NA	NA	c2.jpg	153
215.68	2	1_1	1	0.7728352	c23.jpg	153
223.71	2	5_3	1	1.018044	c6.jpg	153
230.66	2	5_2	1	1.141519	c8.jpg	153
236.88	2	5_4	1	1.039882	c19.jpg	153
244.55	2	5_4	1	1.266426	c17.jpg	153
249.31	2	5_3	1	1.014477	c11.jpg	153
254.06	2	5_4	1	1.78046	c13.jpg	153
261	2	5_5	1	1.212819	c17.jpg	153
266.49	2	5_2	1	1.866741	c21.jpg	153
271.98	2	5_4	1	1.742086	c18.jpg	153
279.65	2	5_5	1	1.717904	c19.jpg	153
283.68	2	1_1	NA	NA	c9.jpg	153
290.62	2	5_3	NA	NA	c10.jpg	153
298.66	2	5_4	2	1.112678	c6.jpg	153
306.33	2	5_5	1	1.187665	c18.jpg	153
314	2	5_4	NA	NA	c10.jpg	153
322.03	2	5_3	2	0.4073186	c8.jpg	153
326.43	2	1_1	1	1.253516	c14.jpg	153
332.64	2	5_4	1	0.9446118	c11.jpg	153
339.95	2	5_5	2	1.636058	c11.jpg	153
345.44	2	5_5	2	1.624671	c6.jpg	153
352.01	2	5_5	2	1.316498	c10.jpg	153
360.04	2	5_4	NA	NA	c16.jpg	153
365.89	2	5_5	1	1.517395	c13.jpg	153
373.56	2	5_3	2	0.9345351	c21.jpg	153
378.7	2	5_4	1	0.4123064	c1.jpg	153
384.55	2	1_1	2	0.9974233	c5.jpg	153
391.87	2	5_5	2	1.344091	c2.jpg	153
398.11	2	1_1	2	1.492218	c3.jpg	153
402.86	2	5_4	1	1.977501	c21.jpg	153
408.35	2	5_4	1	1.095402	c8.jpg	153
412.77	2	5_5	1	0.8121561	c1.jpg	153
417.9	2	5_5	1	0.7998702	c8.jpg	153
424.84	2	5_5	1	1.943059	c16.jpg	153
431.06	2	5_5	NA	NA	c21.jpg	153
3.08	2	5_1	1	1.339924	c12.jpg	156
7.17	2	5_1	1	1.760377	c3.jpg	156
12.68	2	5_2	2	1.144669	c3.jpg	156
18.93	2	5_1	1	1.381472	c24.jpg	156
26.96	2	5_1	2	1.541691	c14.jpg	156
30.99	2	5_1	NA	NA	c9.jpg	156
35.4	2	5_1	1	1.9746	c4.jpg	156
41.98	2	5_2	2	1.038615	c14.jpg	156
46.01	2	5_2	1	0.9819531	c12.jpg	156
52.24	2	5_1	1	1.309535	c22.jpg	156
58.83	2	5_2	2	1.350387	c4.jpg	156
65.04	2	5_2	2	1.006897	c9.jpg	156
71.62	2	5_1	1	0.777132	c20.jpg	156
77.12	2	5_3	2	1.115185	c12.jpg	156
82.62	2	5_3	2	1.997634	c3.jpg	156
87.02	2	5_1	1	1.216146	c23.jpg	156
92.15	2	5_1	1	0.8411046	c5.jpg	156
98	2	5_3	2	1.044998	c9.jpg	156
105.31	2	5_2	2	0.9608978	c22.jpg	156
110.79	2	5_2	2	0.8853374	c24.jpg	156
115.55	2	1_1	1	0.884921	c10.jpg	156
119.59	2	5_4	2	0.8678541	c9.jpg	156
124.36	2	5_1	1	0.980893	c15.jpg	156
132.4	2	5_2	2	1.127835	c23.jpg	156
137.54	2	1_1	1	1.460109	c2.jpg	156
144.84	2	5_2	2	1.232816	c20.jpg	156
149.62	2	1_1	1	0.9988335	c11.jpg	156
156.2	2	5_3	2	1.214296	c22.jpg	156
164.24	2	5_1	1	1.037291	c7.jpg	156
170.09	2	5_3	2	1.028623	c23.jpg	156
174.48	2	5_4	2	1.802226	c12.jpg	156
181.79	2	5_3	2	0.898017	c14.jpg	156
186.19	2	5_2	2	1.249398	c7.jpg	156
192.04	2	5_4	2	1.3536	c14.jpg	156
199.71	2	5_2	2	1.119999	c15.jpg	156
207.38	2	5_3	2	1.008549	c7.jpg	156
215.42	2	1_1	1	0.8694763	c16.jpg	156
222.37	2	5_5	2	1.14054	c12.jpg	156
230.4	2	5_3	2	1.10136	c15.jpg	156
236.63	2	5_4	2	1.469848	c3.jpg	156
243.94	2	5_3	2	1.154039	c4.jpg	156
248.7	2	5_3	2	0.9626576	c20.jpg	156
252.74	2	5_4	2	0.9534339	c20.jpg	156
258.59	2	5_2	2	0.8679315	c5.jpg	156
264.07	2	5_4	2	0.8587603	c22.jpg	156
271.01	2	5_3	2	0.7714196	c24.jpg	156
275.05	2	5_4	2	0.7233582	c24.jpg	156
281.99	2	1_1	1	1.074666	c18.jpg	156
289.67	2	5_4	2	1.432883	c15.jpg	156
295.52	2	5_5	2	0.8656574	c9.jpg	156
300.65	2	1_1	1	0.8843013	c8.jpg	156
305.06	2	5_5	2	0.9622297	c3.jpg	156
310.19	2	1_1	1	1.219916	c21.jpg	156
314.96	2	5_4	2	1.496677	c23.jpg	156
319.72	2	5_5	2	0.8432303	c23.jpg	156
324.12	2	5_3	2	0.9518354	c5.jpg	156
330.71	2	5_5	2	0.7480937	c22.jpg	156
336.93	2	5_4	2	1.012598	c7.jpg	156
343.52	2	1_1	1	0.8587609	c17.jpg	156
348.64	2	1_1	1	0.9595797	c6.jpg	156
354.86	2	1_1	1	1.32308	c19.jpg	156
360.72	2	1_1	1	1.086781	c1.jpg	156
368.75	2	5_4	2	0.8482518	c4.jpg	156
375.69	2	5_5	2	0.9743718	c15.jpg	156
382.64	2	1_1	1	1.560434	c13.jpg	156
388.13	2	5_4	2	1.309509	c5.jpg	156
393.26	2	5_5	2	1.151882	c20.jpg	156
400.92	2	5_5	2	0.8682605	c14.jpg	156
408.23	2	5_5	2	1.072847	c7.jpg	156
415.17	2	5_5	2	0.8886815	c4.jpg	156
422.84	2	5_5	2	0.8289736	c24.jpg	156
430.52	2	5_5	2	1.450272	c5.jpg	156
3.1	2	5_1	1	1.382584	c5.jpg	158
11.1	2	5_1	1	1.820273	c15.jpg	158
18.8	2	5_1	1	1.240554	c4.jpg	158
23.6	2	1_1	1	1.245933	c19.jpg	158
28.8	2	5_1	1	1.526415	c12.jpg	158
34.3	2	5_2	2	1.60859	c5.jpg	158
41.6	2	5_1	1	1.145651	c14.jpg	158
49.3	2	1_1	1	1.240384	c21.jpg	158
55.5	2	5_2	2	1.335675	c15.jpg	158
61.7	2	5_1	1	1.064541	c9.jpg	158
67.9	2	5_1	1	1.278763	c23.jpg	158
74.9	2	5_1	1	1.0254	c3.jpg	158
82.9	2	5_2	NA	NA	c12.jpg	158
87.7	2	5_1	1	1.850381	c22.jpg	158
95	2	5_2	2	1.511349	c14.jpg	158
102.3	2	5_3	2	1.304784	c12.jpg	158
110	2	5_4	2	1.98562	c12.jpg	158
115.5	2	5_1	NA	NA	c24.jpg	158
120.6	2	1_1	1	0.7744537	c18.jpg	158
127.9	2	5_2	1	0.8927905	c3.jpg	158
132.3	2	1_1	1	0.8336275	c13.jpg	158
140.4	2	5_3	2	1.28613	c15.jpg	158
146.6	2	1_1	1	0.9092902	c17.jpg	158
153.6	2	5_2	2	1.408145	c24.jpg	158
161.2	2	5_2	1	1.881581	c22.jpg	158
167.4	2	1_1	1	0.7885946	c8.jpg	158
174	2	5_3	2	0.9775335	c5.jpg	158
178.4	2	5_1	1	0.9842313	c7.jpg	158
182.8	2	1_1	1	1.246874	c10.jpg	158
188.7	2	5_2	1	0.8398921	c23.jpg	158
193.5	2	5_3	2	1.25184	c14.jpg	158
200	2	5_2	1	0.8746743	c9.jpg	158
206.3	2	5_3	2	1.269228	c3.jpg	158
212.1	2	5_3	2	1.127853	c9.jpg	158
218.7	2	5_3	2	0.9751369	c23.jpg	158
222.7	2	5_4	2	1.134162	c23.jpg	158
229.7	2	5_3	2	1.484006	c22.jpg	158
237.7	2	5_2	2	1.572237	c7.jpg	158
245.8	2	5_4	1	1.349367	c3.jpg	158
249.8	2	5_3	2	0.9299482	c24.jpg	158
257.5	2	1_1	1	1.637252	c2.jpg	158
263	2	5_1	1	0.7212964	c20.jpg	158
271	2	5_4	2	0.862899	c24.jpg	158
276.5	2	5_5	2	1.069445	c23.jpg	158
281.3	2	5_2	1	1.013187	c4.jpg	158
286.4	2	5_3	2	1.004319	c4.jpg	158
293	2	5_4	2	1.094426	c15.jpg	158
298.1	2	5_3	2	1.155927	c7.jpg	158
303.6	2	5_4	2	1.132563	c5.jpg	158
310.5	2	1_1	1	1.397384	c6.jpg	158
314.6	2	5_4	2	1.084421	c14.jpg	158
320.1	2	5_4	2	0.9326479	c22.jpg	158
327	2	5_4	2	1.028356	c9.jpg	158
334	2	5_5	2	0.8034117	c3.jpg	158
339.1	2	5_4	2	0.9448055	c7.jpg	158
346.4	2	5_2	2	0.8196438	c20.jpg	158
353	2	1_1	1	1.177811	c1.jpg	158
360.7	2	5_4	2	1.573121	c4.jpg	158
366.6	2	5_3	1	0.6541088	c20.jpg	158
370.6	2	5_5	2	1.118008	c5.jpg	158
377.2	2	5_5	2	0.8391144	c24.jpg	158
381.6	2	5_5	2	0.964197	c12.jpg	158
385.6	2	5_4	2	0.6945307	c20.jpg	158
392.9	2	5_5	2	0.7589477	c9.jpg	158
398	2	5_5	2	0.5083272	c4.jpg	158
402.8	2	5_5	2	0.7177625	c15.jpg	158
406.8	2	5_5	2	0.8279494	c7.jpg	158
412.7	2	5_5	2	1.159874	c14.jpg	158
418.5	2	1_1	1	1.009707	c16.jpg	158
423.3	2	1_1	1	0.885552	c11.jpg	158
427.7	2	5_5	2	0.9740293	c20.jpg	158
432.1	2	5_5	2	0.7943751	c22.jpg	158
3.08	2	5_1	NA	NA	c7.jpg	161
7.87	2	5_1	NA	NA	c12.jpg	161
12.64	2	5_1	NA	NA	c22.jpg	161
20.34	2	5_1	NA	NA	c5.jpg	161
25.84	2	5_2	2	1.686574	c22.jpg	161
32.05	2	5_2	2	1.196456	c12.jpg	161
39.72	2	5_3	2	0.8927427	c22.jpg	161
47.04	2	5_1	1	1.590626	c23.jpg	161
51.8	2	5_1	1	1.957606	c15.jpg	161
59.83	2	5_3	2	1.514805	c12.jpg	161
64.6	2	1_1	1	1.814405	c16.jpg	161
72.27	2	5_4	NA	NA	c12.jpg	161
77.42	2	5_1	1	1.221804	c3.jpg	161
83.99	2	5_1	1	1.505501	c14.jpg	161
91.66	2	5_1	2	1.117346	c20.jpg	161
97.16	2	5_2	NA	NA	c3.jpg	161
101.2	2	1_1	1	1.086347	c6.jpg	161
107.05	2	1_1	1	1.475068	c17.jpg	161
111.46	2	5_1	1	0.9723335	c9.jpg	161
115.85	2	5_2	2	1.812781	c15.jpg	161
120.28	2	5_2	2	1.256724	c7.jpg	161
127.22	2	1_1	1	1.494235	c19.jpg	161
132.71	2	1_1	1	1.74346	c18.jpg	161
139.28	2	5_2	1	1.291745	c5.jpg	161
145.5	2	5_2	2	1.978105	c20.jpg	161
151.36	2	5_2	NA	NA	c9.jpg	161
156.85	2	1_1	1	0.9680246	c21.jpg	161
161.61	2	5_3	2	0.8003227	c9.jpg	161
169.65	2	5_3	2	1.026813	c3.jpg	161
175.5	2	5_2	2	1.276232	c14.jpg	161
180.63	2	5_4	2	1.055204	c3.jpg	161
185.75	2	5_3	2	1.776255	c15.jpg	161
193.42	2	1_1	1	1.188565	c10.jpg	161
197.45	2	5_4	2	0.9741059	c22.jpg	161
201.48	2	5_2	2	1.35136	c23.jpg	161
208.42	2	5_4	2	0.9777688	c15.jpg	161
216.1	2	5_1	1	1.920399	c24.jpg	161
223.4	2	5_1	1	0.9776078	c4.jpg	161
228.53	2	5_4	NA	NA	c9.jpg	161
234.38	2	5_5	2	0.8145263	c9.jpg	161
241.69	2	5_3	2	0.8331996	c14.jpg	161
248.27	2	5_2	2	1.518413	c24.jpg	161
254.86	2	5_2	2	1.130464	c4.jpg	161
259.25	2	5_3	2	0.9724637	c23.jpg	161
266.21	2	1_1	NA	NA	c1.jpg	161
273.52	2	5_3	2	0.8206123	c4.jpg	161
277.92	2	5_5	NA	NA	c3.jpg	161
283.41	2	5_3	NA	NA	c7.jpg	161
288.16	2	5_4	2	0.7268422	c23.jpg	161
295.48	2	1_1	1	1.256527	c11.jpg	161
302.42	2	1_1	1	1.137835	c13.jpg	161
308.64	2	5_3	2	1.152445	c20.jpg	161
315.22	2	5_3	2	1.161973	c24.jpg	161
321.8	2	5_5	2	0.9732481	c22.jpg	161
327.29	2	5_3	NA	NA	c5.jpg	161
333.14	2	5_4	2	0.9015817	c4.jpg	161
340.1	2	1_1	1	1.44462	c2.jpg	161
348.13	2	5_4	1	1.074282	c7.jpg	161
353.99	2	5_4	2	1.004699	c20.jpg	161
360.93	2	5_4	2	1.050857	c24.jpg	161
368.24	2	5_4	2	1.207849	c14.jpg	161
374.45	2	5_4	2	1.005578	c5.jpg	161
380.69	2	1_1	1	1.074053	c8.jpg	161
385.82	2	5_5	2	0.9937677	c12.jpg	161
393.86	2	5_5	2	0.9882359	c4.jpg	161
397.89	2	5_5	2	0.5197616	c20.jpg	161
401.92	2	5_5	2	0.9179914	c23.jpg	161
409.95	2	5_5	2	0.6585865	c14.jpg	161
417.98	2	5_5	2	1.290769	c15.jpg	161
424.19	2	5_5	2	1.635246	c24.jpg	161
429.31	2	5_5	1	1.032105	c7.jpg	161
433.72	2	5_5	2	0.9781459	c5.jpg	161
3.1	2	5_1	1	1.230059	c13.jpg	164
9.38	2	1_1	1	1.089988	c22.jpg	164
14.15	2	5_1	1	1.313335	c21.jpg	164
18.61	2	5_1	1	1.193862	c2.jpg	164
23.74	2	5_1	1	1.264972	c19.jpg	164
29.6	2	1_1	1	1.658123	c14.jpg	164
36.93	2	5_1	1	1.114972	c11.jpg	164
43.18	2	5_1	NA	NA	c1.jpg	164
47.58	2	5_2	2	1.538336	c2.jpg	164
53.08	2	5_1	1	1.215173	c16.jpg	164
61.12	2	5_2	2	1.14702	c16.jpg	164
68.79	2	5_2	2	1.574008	c11.jpg	164
74.28	2	5_2	2	1.509113	c1.jpg	164
80.86	2	5_2	2	0.945742	c19.jpg	164
88.18	2	1_1	1	1.376384	c5.jpg	164
94.05	2	5_3	2	1.217156	c1.jpg	164
100.26	2	5_3	2	1.098698	c11.jpg	164
107.56	2	5_3	2	1.573106	c16.jpg	164
115.63	2	1_1	1	1.172992	c3.jpg	164
120.75	2	5_1	1	1.346849	c17.jpg	164
127.71	2	5_1	1	0.9368324	c10.jpg	164
134.3	2	1_1	1	1.647927	c7.jpg	164
141.97	2	5_2	NA	NA	c21.jpg	164
148.54	2	5_2	2	0.8132322	c17.jpg	164
153.67	2	5_3	2	1.579664	c19.jpg	164
161.34	2	5_1	1	1.09764	c8.jpg	164
166.1	2	5_2	2	1.689183	c10.jpg	164
172.68	2	5_2	2	1.170546	c13.jpg	164
177.81	2	5_3	2	1.290475	c17.jpg	164
185.85	2	1_1	1	1.176575	c23.jpg	164
192.09	2	5_1	1	1.116659	c18.jpg	164
197.95	2	5_1	1	0.7445698	c6.jpg	164
204.53	2	5_2	2	1.179072	c18.jpg	164
208.56	2	5_4	2	0.7458108	c17.jpg	164
212.62	2	1_1	1	0.921254	c9.jpg	164
219.2	2	5_3	2	0.9930692	c13.jpg	164
226.51	2	5_3	2	0.9555754	c10.jpg	164
230.55	2	1_1	1	1.44021	c12.jpg	164
237.49	2	5_5	2	0.7530601	c17.jpg	164
244.43	2	5_3	2	1.229808	c21.jpg	164
249.19	2	5_2	2	0.93081	c8.jpg	164
256.87	2	5_3	2	1.399528	c2.jpg	164
262.37	2	1_1	1	0.9883007	c20.jpg	164
266.77	2	5_2	2	0.9965913	c6.jpg	164
271.17	2	1_1	1	0.9547473	c4.jpg	164
279.21	2	5_4	2	0.869647	c10.jpg	164
284.69	2	5_3	2	0.8410805	c18.jpg	164
290.56	2	5_4	2	0.6984848	c2.jpg	164
297.86	2	5_4	2	1.039382	c13.jpg	164
304.8	2	5_4	2	1.130291	c18.jpg	164
309.2	2	5_5	2	1.092292	c10.jpg	164
313.26	2	1_1	1	1.01441	c24.jpg	164
318.74	2	5_4	2	1.388833	c11.jpg	164
325.68	2	5_4	2	0.7614451	c19.jpg	164
329.72	2	5_4	2	1.144257	c1.jpg	164
334.47	2	5_4	2	0.8042903	c16.jpg	164
340.34	2	1_1	1	0.9155311	c15.jpg	164
344.38	2	5_3	2	0.9378831	c8.jpg	164
349.14	2	5_5	2	0.966897	c13.jpg	164
355.36	2	5_5	2	1.002812	c16.jpg	164
360.49	2	5_5	2	0.8868886	c18.jpg	164
365.25	2	5_3	1	0.9021708	c6.jpg	164
369.65	2	5_5	2	0.7726113	c1.jpg	164
377.68	2	5_4	2	0.7279903	c6.jpg	164
383.54	2	5_5	2	0.8375545	c6.jpg	164
391.21	2	5_4	2	0.7191375	c8.jpg	164
398.88	2	5_5	2	0.8135703	c19.jpg	164
404.01	2	5_5	2	0.7546111	c8.jpg	164
412.05	2	5_5	2	0.8445074	c2.jpg	164
418.27	2	5_4	2	1.547685	c21.jpg	164
423.76	2	5_5	2	0.5706373	c21.jpg	164
430.7	2	5_5	2	0.9168292	c11.jpg	164
3	2	1_1	1	1.890483	c22.jpg	167
10.8	2	5_1	1	0.7340764	c17.jpg	167
16.3	2	5_1	1	1.321993	c18.jpg	167
23.3	2	1_1	1	1.125459	c3.jpg	167
29.8	2	5_1	NA	NA	c8.jpg	167
37.2	2	5_1	1	0.7646666	c21.jpg	167
42.6	2	5_1	1	1.257779	c19.jpg	167
48.5	2	5_1	1	1.087245	c1.jpg	167
53.3	2	5_1	1	1.025709	c6.jpg	167
57.7	2	5_2	2	1.533816	c1.jpg	167
64.3	2	5_2	2	1.628296	c8.jpg	167
70.5	2	1_1	1	1.570316	c7.jpg	167
76.4	2	5_1	1	1.121216	c13.jpg	167
82.6	2	5_1	1	0.9983986	c10.jpg	167
90.6	2	5_1	1	1.163384	c16.jpg	167
96.5	2	1_1	1	1.070678	c20.jpg	167
101.6	2	1_1	1	1.150157	c5.jpg	167
105.7	2	5_1	1	0.5405162	c11.jpg	167
111.2	2	5_1	1	0.8972138	c2.jpg	167
115.2	2	5_2	2	1.097417	c13.jpg	167
120.3	2	5_2	2	1.025123	c19.jpg	167
126.9	2	5_2	2	1.088629	c2.jpg	167
131	2	5_2	2	1.08027	c18.jpg	167
139	2	1_1	1	1.213101	c24.jpg	167
145.2	2	5_2	2	1.421096	c21.jpg	167
150	2	5_3	2	0.9002325	c19.jpg	167
156.6	2	1_1	1	1.338726	c14.jpg	167
164.6	2	5_2	NA	NA	c11.jpg	167
170.8	2	5_3	2	0.8772132	c11.jpg	167
178.5	2	5_2	2	0.8251116	c6.jpg	167
185.1	2	5_3	2	1.069221	c8.jpg	167
191.7	2	5_3	2	1.259121	c1.jpg	167
199.4	2	5_4	2	1.024384	c1.jpg	167
206.3	2	5_4	2	1.200973	c8.jpg	167
211.8	2	5_4	2	1.565191	c11.jpg	167
216.2	2	5_2	2	1.408595	c16.jpg	167
224.2	2	5_3	2	1.73642	c18.jpg	167
229	2	5_3	2	1.199446	c21.jpg	167
233.1	2	5_5	2	1.210585	c1.jpg	167
237.5	2	5_3	2	1.337554	c2.jpg	167
245.1	2	5_2	2	1.460251	c10.jpg	167
252.4	2	5_3	2	1.142896	c13.jpg	167
257.6	2	5_4	2	0.8838195	c21.jpg	167
263.4	2	5_2	2	0.7580064	c17.jpg	167
269.3	2	5_3	2	0.8619847	c6.jpg	167
277	2	5_4	2	0.7390894	c2.jpg	167
281.7	2	1_1	1	1.724457	c23.jpg	167
287.2	2	5_3	2	1.125381	c10.jpg	167
294.9	2	1_1	1	1.61652	c9.jpg	167
302.2	2	5_3	2	1.490799	c17.jpg	167
309.2	2	5_4	2	1.474381	c13.jpg	167
316.1	2	5_5	2	0.8386458	c2.jpg	167
322.3	2	5_5	2	0.9676139	c11.jpg	167
326.7	2	5_4	2	1.156911	c18.jpg	167
331.1	2	5_3	2	1.367717	c16.jpg	167
339.2	2	1_1	1	1.319674	c4.jpg	167
346.1	2	5_5	2	1.119946	c21.jpg	167
350.2	2	5_4	1	1.103479	c10.jpg	167
357.5	2	5_4	2	1.531875	c17.jpg	167
361.5	2	5_5	2	0.8618926	c8.jpg	167
367.7	2	1_1	1	1.374703	c12.jpg	167
372.5	2	5_5	2	0.9881294	c13.jpg	167
379.4	2	5_5	2	1.015317	c17.jpg	167
384.2	2	5_5	2	0.9000641	c18.jpg	167
391.5	2	5_4	2	0.8092696	c6.jpg	167
396.6	2	1_1	1	1.087395	c15.jpg	167
401	2	5_5	2	1.088403	c10.jpg	167
406.5	2	5_4	1	1.233686	c16.jpg	167
414.5	2	5_5	2	1.541727	c16.jpg	167
421.9	2	5_4	2	1.820955	c19.jpg	167
427.7	2	5_5	2	0.9532953	c6.jpg	167
432.8	2	5_5	2	0.8773807	c19.jpg	167
3.08	2	5_1	1	0.8860192	c13.jpg	171
9.42	2	5_1	1	1.276735	c19.jpg	171
17.13	2	5_1	1	1.073229	c2.jpg	171
25.2	2	5_1	1	0.885662	c21.jpg	171
32.16	2	5_1	1	0.8717294	c1.jpg	171
39.47	2	1_1	1	0.803675	c4.jpg	171
46.05	2	1_1	1	0.7435538	c22.jpg	171
54.08	2	5_1	1	0.949264	c18.jpg	171
59.2	2	5_1	1	0.8124999	c16.jpg	171
66.51	2	1_1	1	1.039359	c12.jpg	171
73.45	2	5_1	1	1.641227	c10.jpg	171
77.85	2	5_2	2	1.219867	c21.jpg	171
85.18	2	1_1	1	0.8990483	c7.jpg	171
91.03	2	5_2	2	1.592441	c13.jpg	171
96.17	2	1_1	1	0.9999003	c24.jpg	171
100.21	2	5_2	2	1.284168	c1.jpg	171
106.79	2	5_1	1	1.375668	c8.jpg	171
111.94	2	5_1	1	0.9053009	c11.jpg	171
119.25	2	5_2	1	1.012687	c16.jpg	171
125.1	2	1_1	1	1.121291	c15.jpg	171
129.86	2	5_3	2	1.128309	c16.jpg	171
137.54	2	5_2	2	1.426482	c11.jpg	171
143.03	2	5_1	1	1.198808	c17.jpg	171
149.25	2	5_2	2	1.306848	c10.jpg	171
153.28	2	5_3	2	0.8152007	c21.jpg	171
159.87	2	5_2	2	1.232034	c8.jpg	171
165	2	5_1	1	1.099234	c6.jpg	171
169.4	2	5_2	1	0.8892718	c2.jpg	171
174.88	2	5_2	1	0.9392715	c19.jpg	171
178.93	2	5_3	1	0.9546682	c2.jpg	171
186.6	2	5_2	2	1.040449	c18.jpg	171
194.64	2	5_3	2	0.8242171	c18.jpg	171
200.5	2	1_1	2	0.7943938	c14.jpg	171
207.81	2	1_1	1	1.361094	c23.jpg	171
213.3	2	5_3	2	0.7057675	c11.jpg	171
220.25	2	5_3	1	0.9397937	c1.jpg	171
225.76	2	5_4	2	1.354875	c1.jpg	171
233.81	2	5_2	2	0.9751452	c6.jpg	171
238.22	2	5_4	2	1.271585	c2.jpg	171
242.26	2	1_1	2	1.764835	c9.jpg	171
249.94	2	5_4	2	0.7652175	c11.jpg	171
256.89	2	5_3	1	1.854679	c19.jpg	171
261.66	2	5_3	2	0.7285652	c8.jpg	171
265.68	2	5_4	2	0.9688962	c19.jpg	171
270.45	2	5_3	1	1.063082	c13.jpg	171
276.67	2	5_4	2	0.7923502	c21.jpg	171
282.52	2	1_1	1	1.132977	c20.jpg	171
286.92	2	5_3	2	0.7825907	c10.jpg	171
292.42	2	1_1	1	1.324144	c3.jpg	171
297.55	2	5_4	2	1.875619	c16.jpg	171
305.22	2	5_5	2	0.7452314	c21.jpg	171
309.62	2	5_3	2	1.34589	c6.jpg	171
316.21	2	5_4	2	0.8851928	c8.jpg	171
321.33	2	5_4	2	0.7672426	c6.jpg	171
327.91	2	5_4	2	0.8977668	c18.jpg	171
333.77	2	5_5	2	1.208671	c16.jpg	171
339.99	2	5_4	2	1.187256	c13.jpg	171
346.93	2	5_5	2	1.453764	c6.jpg	171
353.51	2	5_2	1	1.27355	c17.jpg	171
361.55	2	5_5	2	0.7183919	c8.jpg	171
366.32	2	5_5	1	1.810222	c2.jpg	171
371.81	2	5_4	2	0.8281263	c10.jpg	171
378.76	2	5_5	2	1.124324	c19.jpg	171
383.16	2	5_3	2	0.9814934	c17.jpg	171
387.93	2	5_5	2	1.11598	c18.jpg	171
395.23	2	5_5	2	1.129995	c10.jpg	171
402.91	2	5_5	2	1.358591	c1.jpg	171
409.13	2	5_5	2	0.8774365	c13.jpg	171
414.98	2	5_4	2	1.388748	c17.jpg	171
419.02	2	5_5	2	0.7242078	c17.jpg	171
427.06	2	5_5	2	0.7969943	c11.jpg	171
431.83	2	1_1	1	1.2499	c5.jpg	171
3.11	2	5_1	1	1.117382	c3.jpg	172
9.74	2	5_1	1	0.9182266	c7.jpg	172
15.27	2	1_1	1	0.9783966	c2.jpg	172
20.44	2	5_2	1	0.8115768	c3.jpg	172
26.68	2	5_1	1	0.989518	c4.jpg	172
33.99	2	5_1	1	1.823782	c5.jpg	172
39.86	2	5_1	1	1.3199	c24.jpg	172
47.16	2	5_1	1	1.022877	c9.jpg	172
53.01	2	5_1	1	0.9238067	c12.jpg	172
60.32	2	5_2	2	1.094255	c5.jpg	172
64.73	2	5_2	2	1.085084	c24.jpg	172
70.23	2	5_3	1	1.124873	c3.jpg	172
77.9	2	5_3	2	1.885722	c24.jpg	172
84.84	2	5_2	2	1.371498	c9.jpg	172
89.6	2	5_3	2	1.196743	c9.jpg	172
94.36	2	5_4	2	0.9661847	c9.jpg	172
101.66	2	5_1	1	1.287388	c14.jpg	172
106.07	2	5_1	1	1.524019	c23.jpg	172
111.57	2	1_1	2	1.517973	c8.jpg	172
117.44	2	5_1	1	1.281238	c22.jpg	172
124.38	2	5_2	2	1.228629	c23.jpg	172
132.42	2	5_3	2	1.120477	c5.jpg	172
140.1	2	5_2	NA	NA	c7.jpg	172
144.14	2	5_2	2	1.168435	c14.jpg	172
151.45	2	5_1	1	0.990547	c15.jpg	172
156.58	2	5_3	2	0.8433995	c7.jpg	172
160.62	2	1_1	1	1.265185	c18.jpg	172
168.69	2	1_1	1	1.021632	c1.jpg	172
172.74	2	5_1	1	1.012465	c20.jpg	172
177.87	2	5_4	2	1.090653	c3.jpg	172
184.09	2	5_5	2	0.9380658	c3.jpg	172
188.85	2	5_2	2	0.9547889	c12.jpg	172
196.9	2	1_1	1	1.024055	c6.jpg	172
204.57	2	5_3	2	0.8489427	c14.jpg	172
209.36	2	1_1	1	1.287864	c21.jpg	172
214.85	2	5_3	2	0.8920621	c23.jpg	172
222.88	2	5_2	2	1.300239	c20.jpg	172
227.64	2	5_3	2	1.112297	c12.jpg	172
232.77	2	5_4	2	0.825884	c12.jpg	172
239.72	2	5_3	2	1.563461	c20.jpg	172
245.57	2	5_2	2	0.9985329	c22.jpg	172
252.53	2	1_1	1	1.229324	c17.jpg	172
257.3	2	5_4	2	0.9206323	c24.jpg	172
263.51	2	5_2	2	1.455474	c15.jpg	172
270.09	2	5_3	2	0.8230694	c22.jpg	172
278.13	2	5_4	2	0.9223308	c5.jpg	172
284.35	2	5_2	2	1.231764	c4.jpg	172
292.39	2	5_4	2	1.02824	c22.jpg	172
299.33	2	5_4	2	1.001407	c20.jpg	172
307.01	2	5_3	2	0.8237937	c4.jpg	172
314.68	2	5_3	2	0.8745242	c15.jpg	172
320.18	2	5_5	2	0.6587135	c22.jpg	172
325.3	2	5_4	2	1.084164	c15.jpg	172
329.36	2	1_1	1	1.03313	c19.jpg	172
336.3	2	5_4	2	0.9821986	c23.jpg	172
340.33	2	5_5	2	0.87656	c12.jpg	172
344.73	2	5_5	2	0.9186048	c9.jpg	172
350.95	2	5_5	2	0.983875	c15.jpg	172
357.54	2	5_4	2	0.7312347	c4.jpg	172
361.94	2	5_5	2	0.7459773	c4.jpg	172
368.54	2	1_1	1	1.388182	c13.jpg	172
374.76	2	5_5	2	0.8124786	c20.jpg	172
380.61	2	5_5	2	0.935728	c23.jpg	172
387.19	2	5_5	2	1.045672	c5.jpg	172
394.86	2	5_4	2	1.002449	c7.jpg	172
400.37	2	1_1	1	1.197731	c10.jpg	172
406.95	2	5_4	2	0.9120098	c14.jpg	172
411.35	2	1_1	1	1.249305	c11.jpg	172
415.75	2	5_5	2	0.7309371	c24.jpg	172
420.88	2	5_5	2	0.7763546	c14.jpg	172
426.73	2	5_5	2	0.7515355	c7.jpg	172
430.78	2	1_1	1	1.117606	c16.jpg	172
3.05	2	5_1	NA	NA	c16.jpg	174
7.84	2	1_1	1	1.09063	c22.jpg	174
15.88	2	5_1	1	1.089832	c19.jpg	174
22.86	2	1_1	1	1.14049	c23.jpg	174
29.45	2	5_1	1	1.483631	c10.jpg	174
37.12	2	1_1	1	1.086062	c14.jpg	174
41.51	2	5_1	1	1.072047	c21.jpg	174
46.27	2	5_1	1	0.8829111	c8.jpg	174
53.23	2	5_1	1	0.9126076	c2.jpg	174
57.63	2	5_2	2	1.151863	c21.jpg	174
63.15	2	5_2	NA	NA	c2.jpg	174
67.19	2	5_1	1	0.8226001	c6.jpg	174
71.22	2	5_3	2	0.9672558	c21.jpg	174
75.98	2	5_2	2	0.7925687	c8.jpg	174
81.1	2	5_1	1	1.059868	c17.jpg	174
87.32	2	5_2	2	1.119867	c6.jpg	174
92.08	2	5_1	1	1.620624	c18.jpg	174
99.02	2	5_1	1	1.184286	c11.jpg	174
104.52	2	5_1	1	1.160524	c1.jpg	174
111.09	2	5_2	2	1.372588	c16.jpg	174
115.85	2	1_1	1	1.18832	c20.jpg	174
121.34	2	5_4	2	0.9151665	c21.jpg	174
129.37	2	5_3	2	1.163314	c6.jpg	174
135.95	2	5_3	2	1.076311	c16.jpg	174
143.25	2	5_1	2	1.005358	c13.jpg	174
147.65	2	5_2	1	1.649671	c19.jpg	174
151.68	2	5_4	2	0.9297639	c6.jpg	174
156.08	2	5_2	2	1.169482	c17.jpg	174
162.3	2	5_2	2	1.056377	c1.jpg	174
168.53	2	5_3	2	0.9260335	c1.jpg	174
174.75	2	1_1	1	1.008727	c12.jpg	174
179.51	2	5_3	2	1.121149	c19.jpg	174
185.38	2	1_1	1	1.528749	c3.jpg	174
192.69	2	1_1	1	1.006254	c9.jpg	174
200.36	2	5_2	2	1.100841	c10.jpg	174
208.39	2	5_2	2	1.149975	c13.jpg	174
212.79	2	1_1	1	1.292969	c7.jpg	174
216.82	2	5_3	2	1.050291	c17.jpg	174
220.86	2	5_2	2	1.559702	c18.jpg	174
228.9	2	5_3	2	1.310075	c2.jpg	174
236.94	2	1_1	1	1.080242	c15.jpg	174
242.08	2	5_4	2	1.016472	c2.jpg	174
247.94	2	5_4	2	1.156633	c17.jpg	174
253.07	2	5_3	2	1.51018	c10.jpg	174
258.19	2	5_3	2	0.9903426	c13.jpg	174
264.04	2	5_2	2	1.135895	c11.jpg	174
270.63	2	5_4	2	0.9730755	c19.jpg	174
276.11	2	5_3	2	1.058022	c11.jpg	174
281.61	2	5_3	2	1.248681	c8.jpg	174
286.74	2	5_4	2	0.9504573	c10.jpg	174
294.04	2	5_4	2	0.9995009	c16.jpg	174
300.99	2	1_1	1	1.068645	c4.jpg	174
307.93	2	5_5	2	0.8380981	c10.jpg	174
314.51	2	5_4	1	1.446006	c1.jpg	174
320.74	2	5_5	2	0.8253977	c2.jpg	174
328.04	2	5_4	2	0.8307611	c8.jpg	174
333.16	2	5_3	2	0.857563	c18.jpg	174
338.65	2	1_1	1	1.073803	c5.jpg	174
344.88	2	1_1	1	0.9272781	c24.jpg	174
350.72	2	5_4	2	0.9652837	c13.jpg	174
356.57	2	5_4	2	0.8521063	c11.jpg	174
363.15	2	5_4	2	1.090339	c18.jpg	174
370.82	2	5_5	2	1.081273	c6.jpg	174
378.85	2	5_5	2	1.163593	c19.jpg	174
386.15	2	5_5	2	0.8777162	c11.jpg	174
393.82	2	5_5	2	0.8124978	c18.jpg	174
400.78	2	5_5	2	0.9630553	c1.jpg	174
408.45	2	5_5	2	0.9267056	c17.jpg	174
412.85	2	5_5	2	1.318617	c8.jpg	174
418.71	2	5_5	2	1.094036	c13.jpg	174
422.74	2	5_5	2	1.258989	c21.jpg	174
430.4	2	5_5	2	0.7655969	c16.jpg	174
3.11	2	5_1	NA	NA	c7.jpg	176
9.4	2	5_1	1	0.848456	c3.jpg	176
14.55	2	5_1	1	1.068485	c5.jpg	176
22.62	2	5_1	1	1.066563	c15.jpg	176
28.84	2	5_2	2	1.455028	c3.jpg	176
32.89	2	1_1	1	1.215347	c19.jpg	176
38.39	2	5_1	1	1.644614	c12.jpg	176
45.72	2	1_1	1	1.060618	c6.jpg	176
50.14	2	5_1	1	0.9002694	c4.jpg	176
55.99	2	5_3	2	0.9751209	c3.jpg	176
60.78	2	5_1	1	0.682856	c23.jpg	176
65.17	2	5_2	2	1.225387	c15.jpg	176
71.03	2	1_1	1	1.52306	c11.jpg	176
79.08	2	1_1	1	1.116499	c17.jpg	176
84.95	2	5_1	1	1.588456	c9.jpg	176
92.63	2	5_1	1	1.231775	c24.jpg	176
97.76	2	5_1	1	0.9243125	c20.jpg	176
102.17	2	1_1	1	0.8823785	c21.jpg	176
107.29	2	5_2	2	1.146095	c9.jpg	176
114.95	2	5_2	1	1.787752	c5.jpg	176
121.9	2	5_3	2	1.476574	c9.jpg	176
126.71	2	5_1	1	0.9319403	c14.jpg	176
133.66	2	5_2	2	1.133385	c14.jpg	176
139.14	2	5_2	2	1.136778	c4.jpg	176
145	2	5_2	2	1.155207	c20.jpg	176
149.39	2	5_2	1	1.65959	c12.jpg	176
154.9	2	1_1	1	0.9887852	c16.jpg	176
162.59	2	5_3	2	1.080924	c20.jpg	176
170.62	2	5_3	2	1.10629	c14.jpg	176
175.39	2	5_1	1	1.011937	c22.jpg	176
181.61	2	5_2	2	1.140264	c24.jpg	176
186.01	2	5_2	1	1.037768	c23.jpg	176
190.41	2	5_3	2	0.6262821	c4.jpg	176
194.45	2	1_1	1	0.73869	c10.jpg	176
198.47	2	5_4	2	0.6073629	c4.jpg	176
206.15	2	5_2	2	0.9577224	c22.jpg	176
214.19	2	5_3	2	0.8797434	c15.jpg	176
219.69	2	5_4	2	1.548371	c3.jpg	176
227.36	2	5_3	2	1.500747	c12.jpg	176
232.85	2	5_4	2	1.076965	c12.jpg	176
239.43	2	5_3	2	1.447793	c5.jpg	176
246.01	2	5_3	2	1.199503	c22.jpg	176
252.23	2	5_5	2	1.642931	c12.jpg	176
257.36	2	5_4	2	1.059517	c20.jpg	176
264.69	2	1_1	1	1.275382	c1.jpg	176
272	2	5_3	2	1.224749	c24.jpg	176
277.13	2	5_5	2	1.402854	c4.jpg	176
283.72	2	1_1	1	1.417453	c13.jpg	176
290.73	2	1_1	NA	NA	c2.jpg	176
296.94	2	5_3	1	1.368695	c23.jpg	176
302.79	2	5_2	1	1.44845	c7.jpg	176
310.11	2	5_5	2	0.9599446	c3.jpg	176
317.78	2	5_4	2	1.119213	c24.jpg	176
324.37	2	5_5	2	1.378826	c24.jpg	176
331.32	2	5_4	2	1.970152	c5.jpg	176
336.83	2	5_4	2	1.053857	c23.jpg	176
344.15	2	5_4	2	1.187333	c15.jpg	176
351.1	2	5_4	2	1.177567	c22.jpg	176
359.14	2	5_5	2	0.9656737	c23.jpg	176
363.18	2	1_1	1	1.25131	c8.jpg	176
369.76	2	5_5	2	1.214231	c20.jpg	176
374.52	2	5_4	2	1.261903	c14.jpg	176
379.65	2	5_5	2	1.231103	c15.jpg	176
383.69	2	1_1	1	1.369016	c18.jpg	176
388.46	2	5_5	2	0.912712	c22.jpg	176
394.3	2	5_3	2	1.464223	c7.jpg	176
398.34	2	5_4	2	0.8291688	c9.jpg	176
404.56	2	5_5	2	0.8560358	c14.jpg	176
412.59	2	5_5	2	1.410415	c5.jpg	176
419.16	2	5_4	2	0.9482098	c7.jpg	176
426.46	2	5_5	2	1.014621	c9.jpg	176
431.22	2	5_5	2	1.679962	c7.jpg	176
3.101	2	5_1	1	1.643356	c3.jpg	178
10.121	2	1_1	1	1.449445	c8.jpg	178
15.267	2	5_1	1	1.43803	c20.jpg	178
21.526	2	5_1	1	1.383825	c5.jpg	178
25.558	2	5_2	2	1.508127	c5.jpg	178
29.602	2	5_1	1	1.027325	c7.jpg	178
36.918	2	5_1	1	1.114406	c23.jpg	178
40.974	2	5_1	1	1.38138	c15.jpg	178
47.91	2	5_2	2	1.054277	c7.jpg	178
53.419	2	5_1	1	1.150034	c4.jpg	178
59.651	2	5_1	1	0.9570723	c22.jpg	178
65.505	2	1_1	NA	NA	c13.jpg	178
71.716	2	5_2	2	0.9932442	c4.jpg	178
78.295	2	5_3	2	0.8337073	c5.jpg	178
84.539	2	1_1	1	1.108316	c1.jpg	178
92.212	2	5_2	2	1.126899	c15.jpg	178
100.278	2	1_1	1	0.8928174	c17.jpg	178
104.67	2	5_2	2	0.7880011	c22.jpg	178
109.424	2	5_4	2	0.721687	c5.jpg	178
116.005	2	5_1	1	1.105303	c12.jpg	178
122.962	2	5_1	1	1.021527	c9.jpg	178
131.001	2	5_3	2	0.9601596	c7.jpg	178
136.497	2	5_1	1	1.028391	c24.jpg	178
144.173	2	5_2	2	1.361278	c24.jpg	178
151.11	2	5_2	1	1.130249	c20.jpg	178
156.608	2	1_1	1	1.019953	c18.jpg	178
164.646	2	5_2	2	1.085751	c12.jpg	178
170.878	2	1_1	1	1.234581	c21.jpg	178
176.374	2	1_1	1	1.071553	c10.jpg	178
180.411	2	5_3	2	1.169174	c4.jpg	178
185.17	2	5_2	1	0.9789968	c23.jpg	178
192.492	2	5_1	1	0.8578593	c14.jpg	178
197.672	2	1_1	1	1.027294	c2.jpg	178
204.247	2	5_3	2	1.408847	c23.jpg	178
208.641	2	5_3	2	0.8481526	c15.jpg	178
216.671	2	5_3	2	0.7222533	c24.jpg	178
223.244	2	5_4	2	0.8192907	c7.jpg	178
230.921	2	5_2	1	1.150992	c3.jpg	178
234.974	2	5_3	2	0.9249088	c3.jpg	178
242.286	2	5_4	2	0.769343	c15.jpg	178
247.415	2	5_2	1	1.238388	c9.jpg	178
252.174	2	5_4	2	0.8538653	c24.jpg	178
256.587	2	1_1	1	1.130213	c19.jpg	178
261.341	2	5_3	2	1.00648	c22.jpg	178
267.189	2	5_4	2	0.7684281	c23.jpg	178
274.864	2	5_3	2	0.8350767	c20.jpg	178
282.897	2	5_4	2	0.8838796	c22.jpg	178
290.21	2	5_3	2	0.8642154	c12.jpg	178
296.794	2	5_4	2	1.000832	c4.jpg	178
304.464	2	5_4	2	0.9228834	c12.jpg	178
309.222	2	5_5	2	0.9849656	c15.jpg	178
316.536	2	5_5	2	0.9448827	c24.jpg	178
322.379	2	5_3	2	1.062165	c9.jpg	178
328.236	2	5_5	2	0.8344096	c22.jpg	178
333.359	2	5_2	2	0.8947112	c14.jpg	178
337.761	2	5_3	2	0.7173417	c14.jpg	178
343.244	2	5_4	2	0.8061266	c20.jpg	178
349.454	2	5_5	2	0.5744702	c20.jpg	178
354.587	2	5_4	2	0.7260936	c14.jpg	178
360.079	2	5_4	2	0.7504609	c9.jpg	178
364.108	2	5_5	2	1.250173	c5.jpg	178
368.884	2	1_1	1	0.9033843	c6.jpg	178
374.727	2	5_5	2	1.4371	c14.jpg	178
379.127	2	5_5	2	0.9421804	c9.jpg	178
384.265	2	1_1	1	1.189009	c11.jpg	178
391.57	2	5_5	2	1.187905	c4.jpg	178
397.431	2	5_4	2	1.212853	c3.jpg	178
404.025	2	5_5	2	0.8499071	c3.jpg	178
408.438	2	1_1	1	0.9303928	c16.jpg	178
415.385	2	5_5	2	0.8410375	c12.jpg	178
423.422	2	5_5	2	0.9365463	c7.jpg	178
431.083	2	5_5	2	1.024989	c23.jpg	178
3.106	2	5_1	1	1.080365	c1.jpg	181
7.209	2	5_1	1	0.9924903	c8.jpg	181
14.887	2	5_1	1	1.318524	c11.jpg	181
20.065	2	5_1	1	1.442594	c2.jpg	181
26.647	2	5_1	1	1.603759	c21.jpg	181
30.677	2	1_1	1	1.200777	c4.jpg	181
37.257	2	5_1	1	1.165166	c16.jpg	181
44.926	2	1_1	1	1.347094	c24.jpg	181
48.964	2	5_1	1	1.356095	c10.jpg	181
55.904	2	1_1	1	1.210128	c20.jpg	181
63.232	2	1_1	NA	NA	c3.jpg	181
70.899	2	5_2	2	1.179976	c10.jpg	181
78.204	2	5_2	2	0.9760567	c8.jpg	181
86.239	2	5_2	2	1.007656	c21.jpg	181
91.011	2	5_2	1	1.474625	c1.jpg	181
98.321	2	5_1	1	1.275516	c6.jpg	181
104.179	2	5_1	1	1.110056	c17.jpg	181
110.399	2	5_1	1	1.210526	c19.jpg	181
118.429	2	5_2	2	1.187602	c11.jpg	181
122.825	2	5_2	2	0.9438738	c6.jpg	181
130.877	2	5_3	2	1.353804	c1.jpg	181
135.64	2	5_1	1	1.108229	c13.jpg	181
141.496	2	5_2	1	1.663652	c13.jpg	181
146.267	2	1_1	1	0.9863319	c12.jpg	181
153.213	2	5_3	2	1.114494	c6.jpg	181
159.797	2	1_1	1	1.154283	c5.jpg	181
165.278	2	5_3	2	0.9239775	c8.jpg	181
172.224	2	5_1	1	1.1062	c18.jpg	181
176.627	2	5_2	2	1.330612	c17.jpg	181
180.656	2	5_2	2	1.375261	c18.jpg	181
184.687	2	5_3	2	0.8516188	c11.jpg	181
190.906	2	5_2	1	1.110009	c19.jpg	181
197.12	2	5_3	2	0.930947	c18.jpg	181
204.056	2	5_3	2	1.29572	c21.jpg	181
209.176	2	5_4	2	1.112752	c11.jpg	181
214.666	2	5_4	2	0.9699103	c21.jpg	181
221.966	2	5_4	2	1.009314	c6.jpg	181
229.288	2	5_2	1	1.228057	c2.jpg	181
234.779	2	5_3	2	1.089979	c19.jpg	181
240.625	2	5_3	2	0.8650913	c17.jpg	181
246.482	2	5_5	2	0.9989989	c11.jpg	181
250.873	2	5_3	2	1.326676	c10.jpg	181
258.906	2	5_4	2	1.248433	c17.jpg	181
266.578	2	5_3	2	1.300533	c13.jpg	181
272.069	2	5_2	1	1.088109	c16.jpg	181
277.554	2	5_5	2	0.7673975	c6.jpg	181
281.956	2	5_4	2	0.8384877	c13.jpg	181
289.996	2	5_4	2	0.985473	c8.jpg	181
296.941	2	1_1	1	1.249728	c7.jpg	181
302.793	2	5_4	2	1.008207	c19.jpg	181
310.471	2	1_1	1	1.219846	c22.jpg	181
318.508	2	5_5	2	1.243647	c21.jpg	181
323.632	2	5_4	2	0.980731	c18.jpg	181
331.313	2	5_4	2	1.390874	c1.jpg	181
338.623	2	5_4	2	1.038747	c10.jpg	181
343.766	2	5_3	2	1.530452	c2.jpg	181
348.526	2	1_1	1	0.9570906	c14.jpg	181
354.74	2	5_5	2	1.120636	c10.jpg	181
360.952	2	5_3	2	1.57099	c16.jpg	181
366.437	2	5_5	2	1.029769	c17.jpg	181
370.835	2	1_1	1	1.470453	c9.jpg	181
375.592	2	5_5	2	0.7826263	c19.jpg	181
380.719	2	1_1	1	1.179709	c15.jpg	181
385.839	2	5_5	2	0.9112997	c8.jpg	181
392.424	2	5_5	2	1.444787	c1.jpg	181
399.013	2	5_4	2	1.337832	c2.jpg	181
404.862	2	1_1	1	1.070811	c23.jpg	181
409.251	2	5_5	2	1.085714	c13.jpg	181
415.822	2	5_5	2	1.241071	c18.jpg	181
419.851	2	5_4	NA	NA	c16.jpg	181
424.621	2	5_5	2	0.9553528	c2.jpg	181
430.841	2	5_5	2	0.9550645	c16.jpg	181
3.08	2	1_1	NA	NA	c19.jpg	183
7.16	2	5_1	NA	NA	c15.jpg	183
11.56	2	5_1	NA	NA	c22.jpg	183
19.63	2	5_1	NA	NA	c14.jpg	183
25.49	2	5_1	1	0.5784111	c12.jpg	183
31.35	2	5_2	1	1.070375	c14.jpg	183
39.02	2	5_3	2	1.140276	c14.jpg	183
43.06	2	1_1	2	1.008071	c8.jpg	183
49.28	2	5_1	1	1.568677	c23.jpg	183
56.61	2	5_1	1	1.355904	c3.jpg	183
61.37	2	5_2	2	1.216457	c22.jpg	183
67.23	2	5_2	2	1.081231	c3.jpg	183
71.63	2	5_1	2	1.389517	c7.jpg	183
79.66	2	1_1	2	1.341193	c10.jpg	183
85.52	2	5_1	1	1.818246	c9.jpg	183
91.74	2	5_1	1	1.587121	c24.jpg	183
95.77	2	5_2	2	0.8663756	c9.jpg	183
103.8	2	5_3	2	1.158168	c22.jpg	183
109.65	2	5_2	2	0.8175712	c24.jpg	183
114.4	2	5_2	2	1.074775	c23.jpg	183
121.34	2	1_1	1	1.146394	c16.jpg	183
125.75	2	1_1	1	1.44067	c2.jpg	183
133.06	2	5_2	1	1.421501	c15.jpg	183
140.72	2	5_4	2	0.787358	c22.jpg	183
145.49	2	5_2	2	0.9423354	c12.jpg	183
153.17	2	5_3	2	0.7706206	c23.jpg	183
160.84	2	5_3	2	0.676101	c9.jpg	183
165.22	2	5_3	2	0.7937176	c12.jpg	183
170.35	2	5_1	NA	NA	c5.jpg	183
176.57	2	5_2	2	0.7843821	c7.jpg	183
182.06	2	5_4	2	0.7085757	c9.jpg	183
188.27	2	1_1	1	1.366902	c13.jpg	183
196.31	2	5_2	2	0.8140097	c5.jpg	183
200.71	2	5_4	2	0.9055687	c14.jpg	183
205.83	2	5_1	1	1.419636	c20.jpg	183
211.32	2	5_1	2	1.586024	c4.jpg	183
218.63	2	5_3	2	1.184237	c5.jpg	183
225.22	2	5_2	2	1.079812	c4.jpg	183
231.79	2	5_4	2	3.64E-04	c5.jpg	183
237.28	2	5_3	2	1.77561	c4.jpg	183
245.32	2	5_4	2	0.7365263	c12.jpg	183
251.53	2	5_5	2	0.7850554	c14.jpg	183
258.48	2	1_1	1	1.362929	c6.jpg	183
265.06	2	1_1	1	1.44987	c1.jpg	183
269.82	2	5_4	2	0.7461785	c4.jpg	183
273.87	2	5_3	2	1.201759	c3.jpg	183
280.81	2	5_3	2	0.6328031	c7.jpg	183
285.94	2	5_4	2	0.8362689	c3.jpg	183
293.97	2	5_3	2	1.161221	c24.jpg	183
300.18	2	5_5	2	0.641331	c4.jpg	183
307.49	2	5_5	NA	NA	c12.jpg	183
314.07	2	5_2	2	0.970295	c20.jpg	183
318.83	2	5_5	2	0.7682869	c5.jpg	183
323.23	2	5_4	2	0.8819286	c7.jpg	183
329.08	2	5_3	2	1.047034	c15.jpg	183
333.11	2	5_4	2	0.6543588	c24.jpg	183
339.69	2	5_3	2	0.8763589	c20.jpg	183
344.81	2	5_4	2	0.9399193	c15.jpg	183
352.11	2	5_5	2	0.8620089	c7.jpg	183
356.87	2	1_1	1	1.400073	c21.jpg	183
364.54	2	5_4	2	0.7294646	c20.jpg	183
371.47	2	5_5	2	0.9788698	c24.jpg	183
375.52	2	5_5	2	1.174288	c3.jpg	183
382.1	2	5_4	2	1.118065	c23.jpg	183
389.77	2	5_5	2	0.8244018	c9.jpg	183
395.25	2	1_1	1	1.574606	c11.jpg	183
400.74	2	1_1	1	1.327922	c18.jpg	183
407.69	2	5_5	2	0.6244943	c20.jpg	183
414.63	2	1_1	NA	NA	c17.jpg	183
419.75	2	5_5	2	1.002024	c22.jpg	183
427.06	2	5_5	2	0.8014625	c23.jpg	183
432.54	2	5_5	2	1.156195	c15.jpg	183
3.05	2	5_1	1	1.763523	c24.jpg	185
7.48	2	5_1	1	9.25E-04	c23.jpg	185
15.16	2	5_1	1	1.044064	c7.jpg	185
20.68	2	5_1	1	0.7791704	c22.jpg	185
28.72	2	5_1	1	0.9072931	c15.jpg	185
36.39	2	5_1	1	0.9377198	c9.jpg	185
42.96	2	5_2	2	1.294562	c22.jpg	185
48.45	2	1_1	1	0.8154012	c21.jpg	185
53.21	2	5_1	1	1.05879	c20.jpg	185
59.81	2	5_1	1	0.9268363	c3.jpg	185
67.86	2	5_2	2	1.130238	c20.jpg	185
74.44	2	5_1	1	1.125032	c4.jpg	185
81.38	2	5_2	2	0.825068	c9.jpg	185
86.15	2	5_2	2	0.9830303	c15.jpg	185
93.82	2	5_1	1	0.9112991	c5.jpg	185
100.04	2	5_2	2	1.003128	c24.jpg	185
104.81	2	1_1	1	1.206155	c2.jpg	185
110.3	2	5_2	2	0.9553645	c23.jpg	185
114.34	2	5_2	1	1.062623	c7.jpg	185
119.09	2	5_2	2	0.9812078	c4.jpg	185
124.58	2	5_3	2	0.7403579	c23.jpg	185
131.53	2	5_3	2	0.8020753	c7.jpg	185
136.66	2	1_1	1	0.9138592	c8.jpg	185
144.7	2	5_3	2	1.277226	c22.jpg	185
150.55	2	1_1	1	0.8157622	c19.jpg	185
155.67	2	5_2	2	0.821181	c5.jpg	185
162.97	2	1_1	1	0.6934641	c6.jpg	185
170.65	2	5_3	2	0.9499818	c24.jpg	185
176.87	2	5_2	2	0.9869656	c3.jpg	185
182	2	5_1	1	0.8383202	c12.jpg	185
188.95	2	5_1	1	0.8423086	c14.jpg	185
193.34	2	5_3	2	0.9068814	c9.jpg	185
200.29	2	5_3	2	0.7406611	c5.jpg	185
204.69	2	1_1	1	0.7375157	c10.jpg	185
208.73	2	5_4	2	0.6174502	c5.jpg	185
214.58	2	5_2	2	0.9637795	c12.jpg	185
220.43	2	5_2	2	0.9239397	c14.jpg	185
226.28	2	5_4	2	0.8320483	c9.jpg	185
233.59	2	1_1	1	1.0531	c18.jpg	185
240.9	2	1_1	1	1.112755	c16.jpg	185
247.85	2	5_4	2	0.8953074	c24.jpg	185
255.53	2	5_4	2	0.8892912	c23.jpg	185
260.65	2	5_3	2	0.7686186	c15.jpg	185
266.87	2	5_3	2	1.732936	c3.jpg	185
272.72	2	1_1	1	0.7207023	c11.jpg	185
278.58	2	5_3	2	0.7615072	c20.jpg	185
282.62	2	5_3	2	0.612082	c4.jpg	185
290.66	2	5_4	2	0.5396615	c15.jpg	185
295.05	2	5_5	2	0.5578009	c15.jpg	185
303.08	2	5_3	2	0.6732934	c12.jpg	185
307.13	2	1_1	1	1.795128	c1.jpg	185
313.34	2	5_4	2	0.7731469	c20.jpg	185
319.92	2	1_1	1	0.8492089	c13.jpg	185
324.33	2	5_4	2	0.7851411	c3.jpg	185
330.54	2	5_4	2	0.7173078	c4.jpg	185
335.67	2	5_3	2	0.8504036	c14.jpg	185
340.44	2	5_4	2	0.6826971	c14.jpg	185
344.85	2	5_5	2	0.7467236	c20.jpg	185
352.9	2	5_5	2	0.8347388	c3.jpg	185
357.66	2	5_4	2	0.6350902	c12.jpg	185
361.69	2	5_4	2	0.9800729	c7.jpg	185
368.64	2	5_5	2	0.9336991	c9.jpg	185
376.31	2	5_5	2	0.9028153	c7.jpg	185
381.8	2	1_1	1	0.8042272	c17.jpg	185
388.39	2	5_5	2	0.7275073	c14.jpg	185
394.6	2	5_5	2	0.6842267	c5.jpg	185
399.72	2	5_4	2	0.7996476	c22.jpg	185
406.31	2	5_5	2	0.6512051	c12.jpg	185
413.61	2	5_5	2	0.6429377	c4.jpg	185
419.1	2	5_5	2	0.6778378	c22.jpg	185
423.14	2	5_5	2	0.6385537	c23.jpg	185
430.44	2	5_5	2	0.6905663	c24.jpg	185
3.05	2	5_1	NA	NA	c21.jpg	187
7.47	2	5_2	1	0.7146925	c21.jpg	187
14.06	2	5_1	1	0.8102496	c16.jpg	187
22.12	2	5_1	1	1.205308	c18.jpg	187
26.16	2	5_1	1	1.141007	c13.jpg	187
31.29	2	5_1	1	0.8945297	c10.jpg	187
36.78	2	5_2	2	1.519035	c13.jpg	187
41.54	2	5_2	2	1.322685	c18.jpg	187
48.85	2	5_1	2	0.9339527	c11.jpg	187
56.88	2	5_1	1	1.676142	c8.jpg	187
62.38	2	5_1	1	1.06413	c1.jpg	187
66.41	2	5_3	1	0.8755049	c18.jpg	187
73.35	2	1_1	1	1.447827	c9.jpg	187
79.21	2	5_3	2	1.047071	c13.jpg	187
86.88	2	5_1	1	1.153331	c19.jpg	187
92.73	2	1_1	1	0.8630217	c24.jpg	187
98.22	2	5_2	2	1.041712	c11.jpg	187
102.62	2	5_4	2	1.178826	c13.jpg	187
109.93	2	5_2	2	1.383053	c8.jpg	187
115.43	2	5_2	NA	NA	c10.jpg	187
119.82	2	5_3	2	1.918631	c10.jpg	187
127.13	2	1_1	2	1.209977	c20.jpg	187
134.82	2	5_1	1	1.609938	c2.jpg	187
140.31	2	5_1	1	0.8125968	c17.jpg	187
146.89	2	5_2	2	0.9502249	c17.jpg	187
154.58	2	5_2	2	1.21082	c2.jpg	187
162.62	2	5_3	2	1.002272	c2.jpg	187
169.19	2	5_3	1	1.407137	c21.jpg	187
175.05	2	5_2	2	1.147221	c16.jpg	187
181.99	2	1_1	1	1.35471	c22.jpg	187
188.93	2	5_2	1	1.65475	c19.jpg	187
193.69	2	5_4	2	1.4536	c18.jpg	187
200.64	2	5_3	2	1.075936	c8.jpg	187
205.78	2	5_2	1	1.115844	c1.jpg	187
213.45	2	5_4	2	0.9895441	c2.jpg	187
217.86	2	5_4	2	1.868553	c10.jpg	187
222.26	2	1_1	1	1.08603	c14.jpg	187
230.31	2	5_5	2	0.8611707	c2.jpg	187
235.07	2	5_3	1	1.943461	c19.jpg	187
241.66	2	5_5	2	1.093827	c10.jpg	187
247.52	2	5_3	2	1.021505	c1.jpg	187
252.65	2	5_4	2	0.7755435	c1.jpg	187
260.32	2	5_4	2	1.145215	c19.jpg	187
265.08	2	5_5	2	0.8529701	c18.jpg	187
273.12	2	5_3	NA	NA	c16.jpg	187
277.15	2	5_1	1	1.051559	c6.jpg	187
283.38	2	1_1	1	1.216907	c3.jpg	187
288.5	2	5_3	2	1.193985	c17.jpg	187
295.8	2	1_1	1	1.246112	c4.jpg	187
300.21	2	5_4	2	1.036547	c17.jpg	187
304.24	2	5_3	1	1.678315	c11.jpg	187
309	2	5_4	2	0.9043438	c8.jpg	187
315.94	2	1_1	1	1.34293	c12.jpg	187
323.25	2	5_2	2	1.257149	c6.jpg	187
328.38	2	5_5	2	1.213485	c13.jpg	187
336.42	2	5_3	2	0.9198429	c6.jpg	187
342.64	2	5_5	2	0.8261954	c8.jpg	187
348.13	2	1_1	1	1.285525	c7.jpg	187
352.16	2	5_4	2	0.9817807	c16.jpg	187
358.73	2	5_4	2	1.017093	c11.jpg	187
364.96	2	5_5	2	0.9975024	c1.jpg	187
371.91	2	1_1	1	1.104754	c5.jpg	187
376.67	2	5_5	2	0.9741701	c19.jpg	187
384.33	2	1_1	1	1.195067	c15.jpg	187
390.92	2	5_5	2	0.9796928	c16.jpg	187
398.23	2	5_4	2	1.821957	c6.jpg	187
404.45	2	5_4	NA	NA	c21.jpg	187
409.56	2	1_1	1	1.117565	c23.jpg	187
415.77	2	5_5	2	0.9959779	c11.jpg	187
421.62	2	5_5	2	1.072095	c17.jpg	187
425.66	2	5_5	2	1.207782	c21.jpg	187
431.52	2	5_5	2	0.8306023	c6.jpg	187
3.05	2	5_1	1	1.619166	c7.jpg	190
8.57	2	5_1	1	1.057746	c20.jpg	190
15.52	2	5_1	1	1.268327	c15.jpg	190
22.5	2	5_1	NA	NA	c9.jpg	190
29.82	2	5_1	1	1.537178	c4.jpg	190
37.49	2	5_1	1	1.623358	c24.jpg	190
42.25	2	5_2	2	1.995548	c24.jpg	190
46.3	2	5_1	NA	NA	c3.jpg	190
54.33	2	5_1	1	1.156434	c12.jpg	190
62.36	2	5_2	2	1.811397	c7.jpg	190
67.13	2	5_1	1	1.753943	c22.jpg	190
73.71	2	5_2	2	1.597154	c15.jpg	190
78.1	2	5_1	1	0.9438255	c23.jpg	190
86.14	2	5_2	2	1.698741	c9.jpg	190
93.81	2	5_3	2	1.774656	c15.jpg	190
99.66	2	5_3	2	1.13473	c24.jpg	190
105.52	2	5_1	1	1.469678	c14.jpg	190
113.55	2	5_2	2	1.82676	c12.jpg	190
121.58	2	5_2	NA	NA	c14.jpg	190
128.15	2	5_3	2	1.045264	c12.jpg	190
135.46	2	1_1	1	1.366447	c6.jpg	190
140.97	2	5_2	1	1.572974	c3.jpg	190
145.37	2	5_3	2	1.287171	c3.jpg	190
150.86	2	5_4	2	1.074853	c15.jpg	190
155.99	2	5_2	2	1.360522	c23.jpg	190
160.75	2	5_2	2	1.271971	c22.jpg	190
167.33	2	1_1	1	1.451535	c19.jpg	190
173.55	2	5_1	NA	NA	c5.jpg	190
181.22	2	5_2	NA	NA	c5.jpg	190
186.7	2	5_4	2	0.9884725	c12.jpg	190
191.47	2	1_1	1	1.483683	c2.jpg	190
196.6	2	5_2	2	1.392554	c20.jpg	190
201.73	2	5_3	2	1.378758	c5.jpg	190
208.68	2	5_3	2	0.9668817	c20.jpg	190
214.53	2	5_3	NA	NA	c7.jpg	190
221.47	2	1_1	2	1.732144	c11.jpg	190
226.26	2	5_2	2	1.846538	c4.jpg	190
233.93	2	5_3	NA	NA	c9.jpg	190
241.23	2	5_3	2	1.680614	c22.jpg	190
247.09	2	5_4	2	1.577314	c22.jpg	190
253.3	2	5_4	2	1.711455	c20.jpg	190
257.69	2	5_5	2	1.615071	c15.jpg	190
262.82	2	5_3	2	1.72692	c4.jpg	190
269.03	2	5_3	2	1.293293	c14.jpg	190
273.07	2	5_4	2	1.799124	c24.jpg	190
277.11	2	1_1	1	1.804292	c17.jpg	190
282.96	2	5_4	2	1.431641	c3.jpg	190
289.55	2	5_4	2	1.532274	c5.jpg	190
294.31	2	5_4	2	0.8477649	c4.jpg	190
299.8	2	1_1	1	1.34466	c18.jpg	190
306.38	2	5_4	NA	NA	c9.jpg	190
313.69	2	5_5	2	0.878168	c24.jpg	190
318.81	2	5_5	2	1.163907	c20.jpg	190
322.84	2	5_5	2	1.17383	c22.jpg	190
326.87	2	1_1	1	1.418516	c10.jpg	190
331.27	2	5_4	1	1.871054	c7.jpg	190
335.66	2	1_1	1	1.380818	c13.jpg	190
342.97	2	5_5	NA	NA	c5.jpg	190
348.1	2	1_1	2	1.317027	c21.jpg	190
355.78	2	5_3	NA	NA	c23.jpg	190
362.36	2	5_5	NA	NA	c4.jpg	190
369.68	2	1_1	NA	NA	c1.jpg	190
376.63	2	5_4	NA	NA	c23.jpg	190
382.48	2	5_4	NA	NA	c14.jpg	190
389.43	2	5_5	NA	NA	c12.jpg	190
393.82	2	5_5	2	1.22198	c9.jpg	190
400.05	2	1_1	2	1.924477	c8.jpg	190
408.09	2	5_5	NA	NA	c14.jpg	190
414.3	2	5_5	NA	NA	c23.jpg	190
420.53	2	5_5	NA	NA	c3.jpg	190
428.19	2	1_1	NA	NA	c16.jpg	190
432.23	2	5_5	2	1.554876	c7.jpg	190
3.1	2	5_1	1	1.497012	c19.jpg	192
7.9	2	5_1	1	1.289938	c13.jpg	192
14.9	2	5_1	1	1.266657	c10.jpg	192
21.2	2	5_1	NA	NA	c1.jpg	192
27.8	2	5_1	1	1.86742	c16.jpg	192
34.4	2	1_1	NA	NA	c12.jpg	192
39.1	2	5_2	2	1.220195	c10.jpg	192
46.8	2	5_1	1	1.059985	c21.jpg	192
53	2	5_2	2	1.215274	c1.jpg	192
60	2	5_1	1	1.102092	c18.jpg	192
65.9	2	1_1	1	1.138307	c24.jpg	192
72.8	2	1_1	1	0.7944777	c23.jpg	192
80.5	2	5_1	1	1.706501	c17.jpg	192
84.9	2	5_2	2	0.907268	c18.jpg	192
88.9	2	5_3	2	0.7555021	c18.jpg	192
94.1	2	5_2	2	0.9462172	c21.jpg	192
99.9	2	5_3	2	0.7686955	c21.jpg	192
106.1	2	1_1	1	0.7339195	c5.jpg	192
114.2	2	1_1	1	1.062553	c4.jpg	192
121.5	2	5_1	1	0.739141	c8.jpg	192
128.8	2	5_2	2	1.796042	c13.jpg	192
136.1	2	5_2	2	0.8527856	c16.jpg	192
140.9	2	5_4	2	0.7466707	c21.jpg	192
148.5	2	5_4	2	0.8186368	c18.jpg	192
153	2	5_1	1	1.201819	c2.jpg	192
159.2	2	5_1	1	1.524358	c11.jpg	192
164.7	2	5_2	2	1.119701	c17.jpg	192
172.7	2	5_2	2	1.090872	c19.jpg	192
178.2	2	5_3	NA	NA	c1.jpg	192
182.3	2	1_1	1	1.062288	c7.jpg	192
188.1	2	5_2	2	0.7968797	c11.jpg	192
193.3	2	5_3	2	0.9922662	c17.jpg	192
199.5	2	5_2	NA	NA	c8.jpg	192
204.3	2	5_4	2	0.7207457	c17.jpg	192
209.8	2	5_2	2	0.6862518	c2.jpg	192
217.1	2	5_3	2	0.8223065	c13.jpg	192
222.9	2	5_4	2	1.557392	c13.jpg	192
230.6	2	5_1	1	1.080133	c6.jpg	192
235.7	2	5_5	2	0.8708137	c13.jpg	192
243.7	2	5_5	2	1.314275	c17.jpg	192
250.7	2	5_3	2	1.654364	c11.jpg	192
257.3	2	5_3	2	0.9967089	c16.jpg	192
262	2	5_3	2	0.7557819	c2.jpg	192
267.2	2	5_3	2	1.702263	c8.jpg	192
274.8	2	5_3	2	0.8320226	c10.jpg	192
279.2	2	5_3	NA	NA	c19.jpg	192
283.6	2	5_4	2	0.6128948	c16.jpg	192
289.1	2	5_4	2	0.5955238	c10.jpg	192
295.7	2	5_4	2	0.5465019	c2.jpg	192
300.1	2	5_4	2	0.6693423	c11.jpg	192
306.7	2	5_5	2	0.6239502	c11.jpg	192
310.7	2	5_4	2	0.9809449	c1.jpg	192
314.8	2	5_5	2	0.7187279	c2.jpg	192
320.3	2	1_1	1	1.598859	c9.jpg	192
326.8	2	5_2	1	0.7863055	c6.jpg	192
332.7	2	5_5	2	0.9694567	c10.jpg	192
337.8	2	5_4	2	0.8286476	c8.jpg	192
343.7	2	5_5	2	0.8589807	c8.jpg	192
351.7	2	5_5	2	0.6747612	c1.jpg	192
359.8	2	5_5	NA	NA	c16.jpg	192
364.5	2	5_3	2	0.6594274	c6.jpg	192
372.2	2	1_1	1	0.9136792	c14.jpg	192
377.4	2	5_4	2	0.6257337	c6.jpg	192
384.7	2	5_5	2	1.447186	c21.jpg	192
392	2	1_1	1	0.9388462	c3.jpg	192
398.2	2	5_5	2	1.171401	c18.jpg	192
406.2	2	5_4	2	1.504604	c19.jpg	192
410.3	2	5_5	2	0.8959009	c19.jpg	192
417.2	2	1_1	2	1.306865	c20.jpg	192
421.3	2	5_5	2	0.6628522	c6.jpg	192
428.2	2	1_1	1	1.510675	c15.jpg	192
432.6	2	1_1	1	0.8819811	c22.jpg	192
3.06	2	5_1	NA	NA	c10.jpg	194
7.85	2	5_1	1	0.8026367	c16.jpg	194
11.88	2	5_1	1	0.8174937	c19.jpg	194
19.96	2	5_2	1	1.066025	c19.jpg	194
23.99	2	5_1	1	1.153218	c13.jpg	194
31.67	2	1_1	1	1.030698	c20.jpg	194
37.88	2	5_1	1	0.763623	c8.jpg	194
41.92	2	1_1	1	0.8063726	c12.jpg	194
47.04	2	5_2	2	1.245964	c8.jpg	194
54.35	2	1_1	1	1.086653	c4.jpg	194
61.67	2	1_1	1	0.9194799	c7.jpg	194
67.52	2	1_1	1	0.7535338	c22.jpg	194
73	2	5_2	1	1.419795	c10.jpg	194
80.33	2	5_1	1	0.7725637	c2.jpg	194
86.91	2	1_1	1	1.038659	c5.jpg	194
93.85	2	5_1	1	1.05608	c18.jpg	194
99.71	2	5_3	2	1.003246	c8.jpg	194
103.75	2	5_2	2	0.8804128	c18.jpg	194
108.17	2	5_1	1	0.8173562	c1.jpg	194
113.29	2	5_2	1	0.9565495	c16.jpg	194
120.95	2	1_1	1	0.990178	c23.jpg	194
128.63	2	5_1	1	1.021136	c21.jpg	194
133.4	2	5_1	1	0.8619451	c11.jpg	194
138.89	2	5_3	2	1.179389	c19.jpg	194
144.02	2	5_2	2	1.195025	c11.jpg	194
152.06	2	5_1	1	1.093634	c6.jpg	194
156.83	2	5_2	1	1.691457	c13.jpg	194
164.51	2	5_2	2	1.100362	c1.jpg	194
171.1	2	5_3	2	0.9419572	c18.jpg	194
177.68	2	5_3	2	1.069054	c10.jpg	194
183.53	2	5_1	1	0.9003741	c17.jpg	194
191.57	2	5_2	2	1.083562	c21.jpg	194
199.25	2	5_2	2	0.8124554	c17.jpg	194
206.19	2	1_1	1	0.8728222	c14.jpg	194
210.59	2	5_3	2	0.7094936	c17.jpg	194
217.17	2	5_2	2	0.5543976	c6.jpg	194
222.29	2	5_3	2	0.7969078	c13.jpg	194
230.33	2	5_3	1	1.422531	c16.jpg	194
236.54	2	5_4	2	0.6887344	c13.jpg	194
243.87	2	5_2	1	1.171362	c2.jpg	194
247.91	2	5_4	2	0.5884499	c17.jpg	194
254.49	2	5_4	2	1.031871	c16.jpg	194
260.35	2	5_5	2	0.8987076	c16.jpg	194
267.29	2	1_1	1	1.285831	c3.jpg	194
275.32	2	5_4	2	0.6715168	c18.jpg	194
280.83	2	5_3	2	0.9155387	c1.jpg	194
286.69	2	5_3	1	0.7694542	c2.jpg	194
293.66	2	5_4	2	0.6598412	c2.jpg	194
298.06	2	5_4	2	1.695554	c1.jpg	194
305.37	2	5_3	2	0.6303999	c21.jpg	194
312.68	2	5_3	2	0.5545917	c6.jpg	194
320.72	2	5_5	2	0.5979387	c17.jpg	194
326.93	2	1_1	1	0.8979281	c15.jpg	194
333.51	2	5_4	2	0.6440604	c21.jpg	194
339.36	2	5_4	2	0.7963043	c8.jpg	194
344.49	2	5_5	2	0.4584149	c8.jpg	194
349.26	2	5_3	2	0.678708	c11.jpg	194
353.66	2	5_4	2	0.8764883	c10.jpg	194
358.06	2	1_1	1	0.7117774	c24.jpg	194
362.83	2	5_5	2	0.6594324	c21.jpg	194
368.31	2	5_4	2	0.8149257	c11.jpg	194
375.98	2	1_1	1	0.7143093	c9.jpg	194
380.01	2	5_4	2	0.5380834	c6.jpg	194
385.5	2	5_5	2	0.4687099	c6.jpg	194
391	2	5_5	2	0.6759829	c1.jpg	194
397.21	2	5_5	2	0.5554761	c10.jpg	194
401.97	2	5_5	2	1.048252	c13.jpg	194
407.1	2	5_4	2	0.5238583	c19.jpg	194
413.34	2	5_5	2	0.651228	c2.jpg	194
417.74	2	5_5	2	0.973617	c18.jpg	194
424.68	2	5_5	2	0.5047698	c11.jpg	194
431.62	2	5_5	2	0.4704269	c19.jpg	194
3.07	2	5_1	1	1.302523	c16.jpg	195
7.88	2	5_1	1	1.028502	c2.jpg	195
14.83	2	5_1	1	0.8522364	c6.jpg	195
19.27	2	5_1	1	0.8448423	c8.jpg	195
25.14	2	5_1	1	0.8278834	c1.jpg	195
31.71	2	5_1	1	1.241948	c19.jpg	195
38.67	2	5_1	1	0.6986669	c18.jpg	195
44.88	2	5_2	2	1.427383	c19.jpg	195
48.92	2	5_1	1	0.9993783	c11.jpg	195
54.42	2	5_2	NA	NA	c1.jpg	195
62.47	2	5_2	1	1.05041	c2.jpg	195
66.87	2	5_2	2	1.223734	c6.jpg	195
74.17	2	5_3	2	1.111311	c19.jpg	195
80.4	2	5_3	2	1.010805	c1.jpg	195
88.44	2	1_1	1	0.7868862	c24.jpg	195
93.21	2	5_4	2	0.9847505	c1.jpg	195
97.24	2	5_1	1	0.8042143	c10.jpg	195
101.28	2	5_1	1	0.9352715	c13.jpg	195
106.4	2	5_2	1	1.489191	c10.jpg	195
112.26	2	5_3	2	0.8105856	c6.jpg	195
117.75	2	5_1	1	0.9040255	c21.jpg	195
124.69	2	1_1	1	0.8735965	c9.jpg	195
129.09	2	5_2	2	1.560791	c21.jpg	195
134.94	2	5_3	2	1.230362	c21.jpg	195
140.07	2	5_1	1	1.066598	c17.jpg	195
144.83	2	5_3	2	1.13814	c2.jpg	195
149.22	2	5_2	2	1.274051	c18.jpg	195
153.98	2	5_2	2	1.342928	c11.jpg	195
159.83	2	5_3	2	0.8125729	c11.jpg	195
167.51	2	5_3	2	0.8898827	c18.jpg	195
171.91	2	1_1	1	1.065653	c22.jpg	195
177.75	2	5_4	2	0.965475	c21.jpg	195
183.24	2	5_5	2	0.8837093	c21.jpg	195
189.09	2	5_4	2	0.9482798	c6.jpg	195
196.4	2	5_4	2	0.9948254	c19.jpg	195
203.34	2	5_2	2	0.9677233	c8.jpg	195
211.01	2	5_2	1	0.9369761	c16.jpg	195
219.03	2	5_2	2	1.139075	c17.jpg	195
225.24	2	5_3	2	1.801805	c16.jpg	195
231.45	2	5_3	2	0.6766152	c8.jpg	195
239.5	2	5_5	2	0.7677008	c1.jpg	195
246.07	2	5_4	2	0.6585201	c18.jpg	195
253.01	2	1_1	1	0.8110929	c4.jpg	195
260.68	2	5_2	2	1.344478	c13.jpg	195
268.7	2	5_3	2	0.9083776	c13.jpg	195
274.19	2	5_4	2	0.8782439	c8.jpg	195
280.78	2	1_1	1	1.043147	c3.jpg	195
287.72	2	1_1	1	1.957968	c14.jpg	195
292.84	2	1_1	1	0.9908045	c23.jpg	195
300.87	2	5_4	2	1.477684	c16.jpg	195
305.64	2	5_4	2	0.8295355	c2.jpg	195
311.85	2	5_4	2	0.6358192	c11.jpg	195
319.52	2	5_5	2	0.5852614	c19.jpg	195
326.82	2	5_5	2	0.8770527	c8.jpg	195
330.87	2	5_5	2	0.6399921	c2.jpg	195
336	2	1_1	1	1.355836	c20.jpg	195
342.22	2	5_4	2	1.219292	c13.jpg	195
349.88	2	5_3	2	1.07812	c17.jpg	195
355.37	2	5_5	2	0.8464451	c18.jpg	195
360.13	2	5_3	2	1.098344	c10.jpg	195
367.43	2	5_4	2	0.843508	c10.jpg	195
375.1	2	5_4	2	0.8720022	c17.jpg	195
381.68	2	5_5	2	1.52391	c10.jpg	195
385.71	2	1_1	1	0.8912064	c5.jpg	195
393.02	2	5_5	2	0.7441442	c17.jpg	195
400.33	2	1_1	1	1.47111	c12.jpg	195
405.82	2	5_5	2	0.9060043	c11.jpg	195
410.95	2	5_5	2	0.6328141	c6.jpg	195
417.53	2	1_1	2	1.595432	c7.jpg	195
421.56	2	5_5	2	0.7327555	c16.jpg	195
426.68	2	1_1	2	1.339647	c15.jpg	195
433.26	2	5_5	2	1.944536	c13.jpg	195
3.06	2	1_1	1	1.078899	c11.jpg	196
10.04	2	5_1	1	1.02318	c24.jpg	196
14.45	2	1_1	1	1.443551	c6.jpg	196
19.24	2	1_1	1	1.128232	c21.jpg	196
26.91	2	1_1	1	0.7713517	c13.jpg	196
34.22	2	1_1	1	0.9976071	c10.jpg	196
39.71	2	5_1	1	1.041046	c15.jpg	196
44.1	2	5_1	1	0.7160162	c12.jpg	196
50.32	2	5_2	NA	NA	c12.jpg	196
55.08	2	5_1	1	0.8461256	c20.jpg	196
62.04	2	1_1	1	0.6193685	c2.jpg	196
67.17	2	1_1	1	0.888083	c19.jpg	196
75.19	2	5_1	1	1.085694	c14.jpg	196
79.23	2	5_2	2	1.343	c14.jpg	196
83.63	2	5_2	2	1.01697	c24.jpg	196
89.48	2	5_1	1	1.021786	c5.jpg	196
93.51	2	5_3	2	0.9332619	c24.jpg	196
97.91	2	5_1	1	1.224519	c7.jpg	196
103.41	2	5_2	2	1.34117	c20.jpg	196
109.62	2	5_1	1	0.8972422	c4.jpg	196
116.93	2	1_1	1	1.046315	c1.jpg	196
120.97	2	5_1	1	1.021883	c9.jpg	196
128.27	2	5_1	1	1.042747	c23.jpg	196
133.4	2	5_3	2	1.300207	c20.jpg	196
141.07	2	5_1	1	0.9093331	c22.jpg	196
145.84	2	5_2	2	1.108917	c7.jpg	196
152.44	2	5_1	1	1.373916	c3.jpg	196
159.75	2	5_3	2	1.66121	c7.jpg	196
165.24	2	5_3	2	1.413794	c12.jpg	196
171.08	2	5_2	NA	NA	c5.jpg	196
178.39	2	1_1	1	1.035125	c17.jpg	196
182.78	2	5_2	2	1.475223	c9.jpg	196
190.45	2	5_2	2	1.906048	c23.jpg	196
195.93	2	5_2	2	1.053211	c15.jpg	196
202.15	2	5_2	2	0.9804839	c4.jpg	196
207.64	2	5_4	2	0.8356667	c24.jpg	196
214.59	2	5_3	2	1.17811	c23.jpg	196
221.89	2	5_2	2	1.173246	c22.jpg	196
228.84	2	5_4	2	0.7813684	c23.jpg	196
235.44	2	5_2	1	1.539772	c3.jpg	196
240.57	2	5_4	2	1.184329	c7.jpg	196
244.6	2	5_4	2	0.9534859	c12.jpg	196
249.36	2	5_3	2	1.196057	c22.jpg	196
255.94	2	5_5	NA	NA	c23.jpg	196
263.98	2	5_4	2	0.6303802	c20.jpg	196
270.56	2	5_3	2	0.8183661	c5.jpg	196
276.06	2	5_3	2	0.7001112	c15.jpg	196
284.1	2	5_3	2	0.8507015	c4.jpg	196
291.77	2	5_4	2	0.85289	c5.jpg	196
295.82	2	5_3	2	1.186115	c3.jpg	196
300.97	2	5_4	2	0.8375778	c3.jpg	196
305.36	2	5_5	2	1.120991	c20.jpg	196
313.4	2	5_5	2	0.6493834	c5.jpg	196
318.16	2	5_4	2	1.195943	c4.jpg	196
324.01	2	5_5	2	1.027244	c24.jpg	196
330.24	2	5_5	2	0.8646177	c7.jpg	196
338.28	2	5_3	2	0.8448497	c9.jpg	196
344.85	2	5_3	1	1.22921	c14.jpg	196
348.89	2	5_4	2	1.077378	c14.jpg	196
355.84	2	5_5	2	1.017939	c14.jpg	196
360.6	2	5_4	2	0.8358201	c9.jpg	196
365.73	2	1_1	1	0.9116969	c18.jpg	196
372.32	2	5_5	2	1.617523	c3.jpg	196
377.45	2	5_4	2	0.7373892	c22.jpg	196
383.31	2	5_5	2	0.7139028	c22.jpg	196
389.16	2	5_4	2	1.255955	c15.jpg	196
397.2	2	5_5	2	0.6956676	c15.jpg	196
404.88	2	1_1	1	1.043891	c8.jpg	196
410.73	2	5_5	2	1.097164	c4.jpg	196
418.4	2	1_1	1	1.008614	c16.jpg	196
424.62	2	5_5	1	3.22E-04	c9.jpg	196
430.83	2	5_5	1	3.91E-04	c12.jpg	196
3.06	2	5_1	NA	NA	c13.jpg	201
7.12	2	5_1	1	0.722185	c2.jpg	201
13.35	2	5_1	1	0.7915124	c6.jpg	201
19.24	2	5_1	1	0.7877606	c17.jpg	201
25.82	2	1_1	1	0.9581382	c23.jpg	201
32.4	2	5_1	1	0.9453686	c10.jpg	201
38.25	2	1_1	1	0.7388325	c12.jpg	201
46.28	2	5_1	1	0.9081996	c16.jpg	201
50.68	2	5_1	1	0.7225226	c19.jpg	201
57.61	2	5_2	2	1.135776	c10.jpg	201
65.29	2	5_1	1	1.244647	c21.jpg	201
70.41	2	1_1	1	1.179148	c7.jpg	201
75.54	2	5_2	NA	NA	c16.jpg	201
79.93	2	1_1	1	0.8502633	c20.jpg	201
86.15	2	5_2	2	1.979201	c13.jpg	201
91.64	2	5_3	2	1.072495	c16.jpg	201
98.24	2	5_1	1	1.111633	c1.jpg	201
105.2	2	5_2	2	0.9865184	c1.jpg	201
112.5	2	5_1	1	1.124402	c18.jpg	201
119.45	2	1_1	1	1.181257	c3.jpg	201
124.93	2	5_4	2	1.118476	c16.jpg	201
132.97	2	5_2	2	1.783513	c2.jpg	201
141	2	5_3	2	1.312654	c13.jpg	201
147.95	2	5_1	1	1.173884	c11.jpg	201
153.07	2	5_1	1	1.485681	c8.jpg	201
158.57	2	1_1	1	1.107448	c24.jpg	201
165.51	2	5_2	1	0.8882666	c19.jpg	201
170.27	2	1_1	1	1.214457	c14.jpg	201
174.3	2	1_1	1	1.151048	c22.jpg	201
178.71	2	5_3	2	0.9898452	c1.jpg	201
183.48	2	5_2	2	1.882639	c17.jpg	201
190.07	2	5_2	2	1.212284	c11.jpg	201
197.73	2	5_2	2	1.502733	c6.jpg	201
202.13	2	1_1	1	0.9671197	c4.jpg	201
209.81	2	5_3	2	0.9934161	c11.jpg	201
215.3	2	5_3	2	1.557191	c19.jpg	201
222.61	2	5_4	2	1.155824	c1.jpg	201
230.65	2	5_3	2	1.043402	c2.jpg	201
238.68	2	5_2	NA	NA	c21.jpg	201
244.89	2	5_3	2	0.8837876	c6.jpg	201
250.02	2	5_3	2	1.447747	c10.jpg	201
255.51	2	5_2	2	1.251963	c18.jpg	201
262.81	2	5_3	2	1.093523	c21.jpg	201
270.48	2	1_1	1	0.9334602	c9.jpg	201
277.79	2	5_3	2	0.9579579	c17.jpg	201
