onset	duration	trial_type	response	response_time	stim	sub
3.1	2	5_1	1	1.14659	c3.jpg	103
8.9	2	5_1	1	0.7905036	c20.jpg	103
15.5	2	5_2	2	0.9499121	c20.jpg	103
20.6	2	5_1	1	1.337552	c12.jpg	103
28.7	2	5_2	2	1.120912	c12.jpg	103
36.4	2	5_1	1	1.164484	c24.jpg	103
42.2	2	1_1	1	0.839674	c19.jpg	103
48.1	2	5_1	1	1.133739	c22.jpg	103
52.8	2	5_1	1	1.22196	c14.jpg	103
58.3	2	5_1	1	0.8027249	c9.jpg	103
63.4	2	5_2	2	1.319414	c24.jpg	103
70	2	5_1	1	0.9731309	c15.jpg	103
75.9	2	5_1	1	0.9135938	c7.jpg	103
82.8	2	5_2	2	1.096333	c22.jpg	103
89.8	2	5_3	2	1.794178	c22.jpg	103
97.4	2	5_2	2	1.651374	c15.jpg	103
101.5	2	5_2	2	1.445005	c9.jpg	103
106.6	2	1_1	NA	NA	c1.jpg	103
111.7	2	5_2	2	1.52335	c7.jpg	103
118	2	5_3	1	1.651176	c20.jpg	103
124.5	2	5_3	2	1.262212	c9.jpg	103
132.2	2	5_1	1	0.9980221	c4.jpg	103
136.6	2	5_4	2	1.768692	c9.jpg	103
140.7	2	5_2	NA	NA	c14.jpg	103
144.7	2	5_2	2	1.120013	c4.jpg	103
152.7	2	5_3	2	1.430155	c7.jpg	103
158.9	2	5_3	2	1.108495	c24.jpg	103
165.5	2	5_3	NA	NA	c14.jpg	103
172.1	2	1_1	1	0.7738503	c11.jpg	103
176.9	2	5_2	2	1.805477	c3.jpg	103
182.7	2	5_4	2	1.158237	c7.jpg	103
188.2	2	5_3	2	0.8996066	c15.jpg	103
195.9	2	5_5	2	1.211381	c9.jpg	103
202.1	2	5_1	1	1.183427	c23.jpg	103
209.4	2	5_4	2	1.332686	c22.jpg	103
216.7	2	5_3	2	0.8977316	c3.jpg	103
222.2	2	1_1	1	0.9371226	c16.jpg	103
230.2	2	5_1	1	1.296634	c5.jpg	103
234.3	2	5_4	2	1.170704	c24.jpg	103
240.5	2	5_5	2	1.128629	c24.jpg	103
244.9	2	1_1	1	1.602002	c17.jpg	103
248.9	2	1_1	1	1.076131	c21.jpg	103
253.3	2	1_1	1	0.9423455	c10.jpg	103
259.5	2	5_5	2	0.712605	c7.jpg	103
267.2	2	1_1	1	1.159721	c6.jpg	103
274.1	2	5_3	2	1.313715	c12.jpg	103
278.2	2	1_1	1	1.884498	c8.jpg	103
283.7	2	5_4	2	0.8516102	c15.jpg	103
291.7	2	1_1	1	1.76572	c2.jpg	103
299	2	5_3	2	1.186195	c4.jpg	103
306.3	2	5_4	2	0.8658812	c4.jpg	103
310.7	2	5_2	1	1.161301	c5.jpg	103
316.2	2	5_4	2	1.904484	c3.jpg	103
322.4	2	5_5	2	0.751123	c4.jpg	103
329.7	2	5_4	2	0.7938155	c12.jpg	103
334.1	2	5_5	2	1.392688	c15.jpg	103
339.6	2	5_5	2	0.8386728	c22.jpg	103
344.4	2	5_2	1	1.946382	c23.jpg	103
349.5	2	5_4	2	1.093372	c14.jpg	103
353.9	2	1_1	1	1.059597	c13.jpg	103
360.5	2	5_4	2	1.141355	c20.jpg	103
367.5	2	5_3	2	1.163742	c23.jpg	103
372.6	2	1_1	1	1.051812	c18.jpg	103
380.3	2	5_3	2	1.352045	c5.jpg	103
385	2	5_4	2	1.18136	c5.jpg	103
392.3	2	5_5	2	1.527052	c14.jpg	103
399.3	2	5_5	2	1.015306	c12.jpg	103
407.3	2	5_5	2	0.7817911	c20.jpg	103
413.2	2	5_4	2	0.9117511	c23.jpg	103
421.2	2	5_5	2	1.191696	c3.jpg	103
428.2	2	5_5	2	0.8854192	c23.jpg	103
432.9	2	5_5	2	1.679378	c5.jpg	103
3.06	2	5_1	NA	NA	c21.jpg	107
8.93	2	1_1	1	1.248541	c23.jpg	107
15.53	2	5_1	1	1.133666	c11.jpg	107
21.02	2	5_2	2	1.231943	c21.jpg	107
25.06	2	5_1	1	0.7609764	c6.jpg	107
32.75	2	5_1	1	1.612985	c1.jpg	107
37.14	2	5_2	2	0.8011139	c11.jpg	107
42.29	2	5_1	2	1.450938	c10.jpg	107
49.98	2	5_1	NA	NA	c17.jpg	107
54.39	2	5_1	2	1.477508	c16.jpg	107
60.61	2	5_2	2	0.899234	c1.jpg	107
64.64	2	1_1	2	0.9592558	c9.jpg	107
70.53	2	5_1	2	1.332525	c2.jpg	107
78.57	2	1_1	1	1.878357	c12.jpg	107
86.61	2	5_2	2	1.316373	c16.jpg	107
93.19	2	5_3	2	1.179353	c16.jpg	107
100.13	2	5_3	2	0.7390748	c11.jpg	107
106	2	5_1	1	1.631124	c19.jpg	107
111.14	2	5_1	2	0.8737541	c18.jpg	107
118.1	2	5_3	NA	NA	c1.jpg	107
122.51	2	1_1	2	0.8826837	c20.jpg	107
127.63	2	5_2	2	0.8931899	c17.jpg	107
134.23	2	1_1	1	0.6621757	c5.jpg	107
141.54	2	1_1	1	1.019169	c22.jpg	107
145.94	2	5_2	2	0.7643669	c18.jpg	107
150.71	2	5_4	2	1.643298	c1.jpg	107
156.19	2	5_2	1	1.186018	c10.jpg	107
163.86	2	5_4	2	0.8006913	c11.jpg	107
167.89	2	5_2	2	1.556798	c19.jpg	107
173.38	2	5_3	NA	NA	c19.jpg	107
179.23	2	5_1	1	1.479686	c8.jpg	107
184	2	5_3	2	0.8688466	c18.jpg	107
190.22	2	5_2	2	1.315941	c6.jpg	107
197.55	2	1_1	1	1.579704	c15.jpg	107
202.31	2	5_2	NA	NA	c8.jpg	107
206.34	2	5_3	NA	NA	c17.jpg	107
212.92	2	1_1	1	1.361057	c14.jpg	107
219.14	2	5_3	2	1.159506	c21.jpg	107
227.18	2	5_2	NA	NA	c2.jpg	107
234.5	2	5_1	2	1.342553	c13.jpg	107
241.44	2	5_3	2	1.11934	c10.jpg	107
247.3	2	5_4	2	1.401758	c18.jpg	107
253.52	2	5_4	2	1.809702	c16.jpg	107
260.09	2	5_4	2	0.8261362	c21.jpg	107
268.12	2	5_5	2	0.6787872	c21.jpg	107
276.15	2	5_2	1	0.7454405	c13.jpg	107
280.18	2	5_3	2	0.7722265	c6.jpg	107
286.41	2	5_5	2	1.506511	c18.jpg	107
293.34	2	5_4	2	1.282473	c10.jpg	107
297.74	2	5_4	2	0.7151896	c17.jpg	107
303.23	2	5_3	NA	NA	c8.jpg	107
310.91	2	5_4	2	1.854798	c19.jpg	107
316.39	2	5_5	2	0.8314997	c17.jpg	107
322.24	2	5_5	2	0.739561	c19.jpg	107
329.19	2	1_1	1	1.168444	c4.jpg	107
336.14	2	5_5	2	1.062497	c16.jpg	107
340.92	2	5_3	2	1.765072	c2.jpg	107
346.04	2	5_4	2	1.287155	c8.jpg	107
352.25	2	5_4	2	1.656224	c6.jpg	107
356.66	2	1_1	1	1.332606	c7.jpg	107
360.7	2	1_1	NA	NA	c24.jpg	107
368.38	2	5_4	NA	NA	c2.jpg	107
373.5	2	5_3	2	1.153229	c13.jpg	107
380.81	2	5_5	2	0.8641656	c11.jpg	107
388.12	2	5_5	NA	NA	c10.jpg	107
393.24	2	5_5	NA	NA	c6.jpg	107
400.55	2	5_5	2	1.053988	c8.jpg	107
405.34	2	5_5	2	1.323507	c1.jpg	107
410.1	2	5_4	NA	NA	c13.jpg	107
416.68	2	5_5	2	0.7273886	c13.jpg	107
424.73	2	5_5	NA	NA	c2.jpg	107
432.41	2	1_1	2	1.961085	c3.jpg	107
3.07	2	1_1	1	1.202129	c17.jpg	110
7.85	2	5_1	1	0.9001873	c15.jpg	110
12.65	2	5_1	1	0.7589127	c12.jpg	110
20.69	2	5_1	1	0.6460796	c24.jpg	110
27.64	2	5_1	1	0.5890824	c5.jpg	110
32.06	2	5_1	1	0.6723033	c14.jpg	110
37.9	2	5_1	1	0.721158	c4.jpg	110
45.95	2	5_1	1	0.7102132	c7.jpg	110
52.18	2	5_1	1	0.7201653	c22.jpg	110
60.21	2	5_2	2	1.710135	c5.jpg	110
65.34	2	5_3	2	0.7771918	c5.jpg	110
70.85	2	5_1	1	0.8826624	c23.jpg	110
78.52	2	5_2	2	0.8834495	c4.jpg	110
85.84	2	5_1	1	0.9915909	c3.jpg	110
90.97	2	1_1	1	1.113145	c19.jpg	110
96.46	2	5_3	2	0.6980183	c4.jpg	110
101.22	2	5_2	2	1.733059	c15.jpg	110
106.71	2	5_1	1	0.8071052	c20.jpg	110
114.01	2	5_2	2	0.8847101	c24.jpg	110
118.43	2	5_1	1	1.385334	c9.jpg	110
126.11	2	5_2	1	0.9325281	c9.jpg	110
132.71	2	1_1	1	1.961194	c21.jpg	110
136.75	2	5_2	2	1.516646	c3.jpg	110
142.25	2	1_1	1	1.07112	c8.jpg	110
148.11	2	5_2	1	1.41329	c14.jpg	110
155.06	2	5_2	1	0.8091145	c22.jpg	110
162.75	2	1_1	1	0.680742	c11.jpg	110
167.14	2	5_3	2	0.8378252	c15.jpg	110
171.54	2	5_2	1	0.9620057	c20.jpg	110
175.58	2	5_4	2	0.8235154	c15.jpg	110
182.52	2	5_3	2	0.6561989	c20.jpg	110
189.87	2	1_1	2	1.009289	c2.jpg	110
196.81	2	5_2	1	0.7871176	c23.jpg	110
202.3	2	5_2	2	1.381519	c7.jpg	110
208.52	2	5_4	2	0.9691157	c5.jpg	110
214.01	2	5_4	2	0.7515871	c4.jpg	110
220.59	2	5_2	1	1.297984	c12.jpg	110
226.45	2	5_3	2	0.8142184	c14.jpg	110
230.48	2	5_3	2	1.01823	c9.jpg	110
238.17	2	1_1	1	0.9128429	c6.jpg	110
245.84	2	5_3	2	1.526334	c24.jpg	110
253.87	2	5_4	2	0.6995074	c9.jpg	110
260.82	2	5_3	1	1.270102	c7.jpg	110
266.68	2	5_3	2	1.120794	c3.jpg	110
271.07	2	5_4	2	1.586665	c7.jpg	110
277.65	2	5_4	2	0.9101409	c14.jpg	110
281.7	2	1_1	1	1.336427	c10.jpg	110
286.83	2	5_4	2	1.426379	c20.jpg	110
294.13	2	5_4	2	0.6735229	c24.jpg	110
302.17	2	5_5	2	0.7953146	c15.jpg	110
309.12	2	5_3	2	1.396974	c22.jpg	110
313.54	2	1_1	1	1.290317	c16.jpg	110
321.57	2	5_5	2	0.8414603	c9.jpg	110
326.7	2	5_5	2	0.8103986	c24.jpg	110
331.47	2	5_5	2	1.644854	c7.jpg	110
336.25	2	5_4	NA	NA	c3.jpg	110
341.38	2	5_3	2	0.8232187	c12.jpg	110
346.52	2	5_5	2	0.7915904	c3.jpg	110
350.56	2	5_5	2	0.7465225	c14.jpg	110
356.77	2	5_3	2	1.115228	c23.jpg	110
362.62	2	5_4	NA	NA	c23.jpg	110
368.52	2	1_1	1	0.9986083	c1.jpg	110
374.74	2	5_5	2	0.8537056	c23.jpg	110
381.34	2	1_1	1	0.9446682	c13.jpg	110
388.66	2	5_5	2	0.7809234	c20.jpg	110
395.97	2	5_4	2	0.6953585	c12.jpg	110
402.57	2	1_1	1	0.9980828	c18.jpg	110
409.15	2	5_4	2	0.9860712	c22.jpg	110
415.38	2	5_5	2	1.123757	c12.jpg	110
421.6	2	5_5	2	1.318225	c5.jpg	110
425.64	2	5_5	NA	NA	c22.jpg	110
433.32	2	5_5	2	0.7698671	c4.jpg	110
3.121	2	5_1	1	1.003145	c2.jpg	112
9.732	2	5_1	1	0.9114593	c6.jpg	112
16.335	2	5_1	1	1.016108	c11.jpg	112
24.009	2	5_2	2	1.129029	c2.jpg	112
29.885	2	5_1	1	0.8827697	c16.jpg	112
37.922	2	5_2	2	1.146503	c16.jpg	112
44.16	2	5_1	1	1.387035	c13.jpg	112
51.838	2	5_1	1	1.29146	c19.jpg	112
55.893	2	1_1	1	0.6820648	c12.jpg	112
60.675	2	1_1	1	1.235533	c4.jpg	112
66.534	2	1_1	1	0.9643998	c9.jpg	112
73.5	2	5_1	1	1.050398	c10.jpg	112
81.188	2	5_1	1	1.179712	c18.jpg	112
87.799	2	5_1	1	1.086568	c1.jpg	112
92.202	2	5_1	1	1.243173	c21.jpg	112
96.595	2	5_2	2	1.308948	c11.jpg	112
101.382	2	1_1	1	1.072858	c3.jpg	112
106.528	2	5_1	1	1.083585	c8.jpg	112
113.83	2	5_2	2	1.587418	c21.jpg	112
120.046	2	5_2	2	0.8331299	c18.jpg	112
124.831	2	1_1	1	1.124185	c23.jpg	112
130.321	2	5_2	2	1.199054	c19.jpg	112
137.26	2	5_2	2	0.9939483	c13.jpg	112
141.672	2	1_1	1	0.9909059	c5.jpg	112
147.883	2	5_3	2	1.071525	c18.jpg	112
154.832	2	5_3	2	0.8211755	c19.jpg	112
158.861	2	5_4	2	0.8942247	c18.jpg	112
166.171	2	5_2	2	1.342144	c10.jpg	112
171.673	2	5_2	2	1.47732	c1.jpg	112
178.994	2	5_3	2	0.8886689	c1.jpg	112
187.039	2	5_1	1	1.145357	c17.jpg	112
192.899	2	5_3	2	1.225171	c16.jpg	112
200.945	2	5_3	2	1.215655	c2.jpg	112
205.344	2	5_2	2	1.140291	c6.jpg	112
212.294	2	5_4	2	0.8593471	c19.jpg	112
219.985	2	5_4	2	0.9838977	c2.jpg	112
225.489	2	1_1	1	1.387025	c7.jpg	112
233.163	2	1_1	1	1.338483	c20.jpg	112
239.74	2	5_3	2	0.7753775	c6.jpg	112
244.5	2	5_2	2	1.629475	c8.jpg	112
251.805	2	5_3	2	0.9280367	c11.jpg	112
258.39	2	5_3	2	0.905129	c8.jpg	112
266.061	2	5_3	2	1.120133	c10.jpg	112
271.919	2	5_2	2	0.7948618	c17.jpg	112
278.144	2	1_1	1	0.9426866	c15.jpg	112
282.538	2	5_4	2	0.8289268	c16.jpg	112
290.58	2	5_3	2	0.7974392	c17.jpg	112
295.71	2	5_4	NA	NA	c11.jpg	112
300.84	2	5_3	2	0.9561741	c21.jpg	112
305.998	2	1_1	1	0.9027901	c24.jpg	112
310.035	2	5_4	2	1.0269	c8.jpg	112
315.889	2	5_5	2	1.337662	c18.jpg	112
322.103	2	5_4	2	1.335617	c21.jpg	112
327.597	2	5_5	2	0.9135369	c21.jpg	112
333.1	2	5_4	2	1.251173	c1.jpg	112
337.138	2	5_4	2	1.188734	c10.jpg	112
344.078	2	5_3	2	1.111198	c13.jpg	112
348.492	2	5_5	2	1.235165	c1.jpg	112
354.338	2	5_4	2	1.062823	c17.jpg	112
359.099	2	5_5	2	1.452645	c11.jpg	112
364.227	2	5_4	2	1.08748	c13.jpg	112
371.527	2	5_5	2	0.8373444	c13.jpg	112
378.107	2	5_5	2	0.9721456	c19.jpg	112
383.592	2	5_5	2	0.9953409	c10.jpg	112
389.827	2	5_5	2	1.031964	c2.jpg	112
393.868	2	5_4	2	1.06865	c6.jpg	112
397.898	2	5_5	2	0.7426262	c6.jpg	112
403.03	2	5_5	2	1.474005	c17.jpg	112
407.793	2	5_5	2	1.112239	c16.jpg	112
415.851	2	1_1	1	0.8945992	c14.jpg	112
423.897	2	1_1	1	0.8445172	c22.jpg	112
431.201	2	5_5	2	1.126321	c8.jpg	112
3.04	2	5_1	1	1.753915	c2.jpg	113
8.55	2	1_1	1	0.7419588	c5.jpg	113
14.42	2	5_1	1	0.7138293	c13.jpg	113
18.83	2	5_2	2	1.291308	c13.jpg	113
26.51	2	5_1	1	0.8644765	c8.jpg	113
30.54	2	1_1	1	1.012509	c12.jpg	113
34.94	2	5_1	2	1.586117	c11.jpg	113
39	2	5_2	1	0.6588201	c11.jpg	113
43.4	2	1_1	1	0.9092733	c15.jpg	113
48.52	2	5_1	1	0.772251	c6.jpg	113
54.38	2	5_1	1	1.070435	c21.jpg	113
61.69	2	5_1	1	0.9540015	c18.jpg	113
69.36	2	5_3	2	1.080755	c11.jpg	113
75.6	2	5_1	1	0.767335	c1.jpg	113
80.73	2	5_2	2	1.086628	c18.jpg	113
87.68	2	5_3	2	0.7806997	c18.jpg	113
93.91	2	5_1	1	0.8487558	c19.jpg	113
99.76	2	5_1	1	1.051962	c10.jpg	113
105.25	2	5_1	1	0.9778856	c16.jpg	113
111.84	2	5_2	2	0.9632291	c2.jpg	113
118.79	2	5_2	1	1.241479	c6.jpg	113
123.56	2	5_2	2	1.487749	c21.jpg	113
127.59	2	5_1	1	1.614781	c17.jpg	113
135.27	2	5_3	2	1.038367	c13.jpg	113
140.77	2	5_4	2	0.8134807	c18.jpg	113
145.53	2	5_5	2	0.788547	c18.jpg	113
152.48	2	5_2	1	1.283721	c1.jpg	113
160.16	2	1_1	1	1.505918	c24.jpg	113
164.2	2	1_1	NA	NA	c7.jpg	113
171.51	2	5_2	2	0.9684621	c17.jpg	113
175.56	2	5_3	2	1.068206	c1.jpg	113
180.69	2	5_3	2	0.8822919	c17.jpg	113
184.74	2	5_3	2	1.080859	c2.jpg	113
190.23	2	1_1	1	0.8002171	c22.jpg	113
195.72	2	5_2	2	1.16526	c10.jpg	113
203.76	2	5_4	2	0.7975492	c17.jpg	113
209.26	2	1_1	1	0.8138892	c20.jpg	113
216.94	2	5_3	2	0.8576406	c21.jpg	113
222.81	2	5_4	2	0.8108664	c1.jpg	113
227.2	2	5_2	2	1.146116	c8.jpg	113
233.78	2	5_3	2	1.049861	c6.jpg	113
238.19	2	5_4	2	1.105562	c11.jpg	113
243.33	2	5_4	2	1.114025	c2.jpg	113
251.37	2	5_3	2	0.6998317	c8.jpg	113
258.32	2	5_3	2	0.8627704	c10.jpg	113
265.62	2	5_4	2	0.6821509	c10.jpg	113
270.02	2	5_4	2	0.7371906	c8.jpg	113
276.24	2	5_4	2	0.7216033	c6.jpg	113
283.55	2	5_5	2	0.6480427	c10.jpg	113
290.14	2	5_2	1	1.569922	c19.jpg	113
295.99	2	1_1	1	1.036858	c4.jpg	113
300.75	2	5_2	2	1.142342	c16.jpg	113
307.33	2	5_3	2	0.8086723	c19.jpg	113
315	2	5_3	2	0.6085645	c16.jpg	113
319.76	2	5_5	2	0.6064575	c8.jpg	113
324.88	2	5_5	2	0.6748294	c11.jpg	113
332.93	2	5_4	2	1.105211	c13.jpg	113
340.23	2	5_5	2	0.6329979	c13.jpg	113
347.19	2	5_5	2	1.482979	c1.jpg	113
353.78	2	1_1	1	1.17534	c9.jpg	113
360	2	5_4	2	1.355746	c19.jpg	113
364.76	2	5_4	2	0.8308248	c21.jpg	113
372.81	2	1_1	1	1.027519	c3.jpg	113
379.4	2	5_4	2	0.6571252	c16.jpg	113
385.61	2	5_5	2	0.4786819	c16.jpg	113
390.75	2	5_5	2	0.6866127	c2.jpg	113
398.06	2	5_5	2	0.6087865	c19.jpg	113
403.92	2	1_1	1	0.9179085	c23.jpg	113
411.95	2	5_5	2	0.6274406	c6.jpg	113
416.71	2	1_1	1	1.202142	c14.jpg	113
423.66	2	5_5	2	1.143563	c17.jpg	113
431.7	2	5_5	2	0.6740265	c21.jpg	113
3.035	2	5_1	1	1.317701	c13.jpg	116
10.354	2	5_1	1	0.7406689	c6.jpg	116
17.306	2	5_1	1	0.5790403	c18.jpg	116
21.71	2	5_1	1	0.6737163	c11.jpg	116
26.478	2	5_2	2	0.9747732	c18.jpg	116
32.338	2	1_1	1	0.7365664	c3.jpg	116
36.373	2	1_1	1	0.6981686	c7.jpg	116
42.586	2	5_1	1	0.77095	c17.jpg	116
48.078	2	5_2	2	1.573516	c13.jpg	116
53.22	2	5_1	1	0.8410332	c2.jpg	116
57.61	2	5_2	2	0.9929962	c11.jpg	116
63.109	2	1_1	1	1.291812	c12.jpg	116
68.596	2	5_1	1	0.935372	c10.jpg	116
75.897	2	5_3	2	0.7528118	c11.jpg	116
79.929	2	5_2	2	1.256394	c17.jpg	116
85.789	2	5_1	1	1.120457	c21.jpg	116
90.909	2	5_2	2	1.376236	c10.jpg	116
97.863	2	5_1	1	1.438827	c8.jpg	116
104.449	2	5_4	2	1.123359	c11.jpg	116
111.033	2	1_1	1	1.08736	c14.jpg	116
117.977	2	5_2	2	0.7084022	c21.jpg	116
124.203	2	1_1	1	0.7564034	c15.jpg	116
130.802	2	5_1	1	1.421566	c1.jpg	116
138.483	2	5_1	1	0.8173108	c16.jpg	116
146.524	2	5_1	1	1.357731	c19.jpg	116
153.108	2	5_2	2	0.9649068	c8.jpg	116
161.147	2	1_1	1	1.195049	c24.jpg	116
166.992	2	5_3	2	0.7581664	c21.jpg	116
171.034	2	5_3	2	1.501349	c8.jpg	116
176.163	2	5_2	NA	NA	c19.jpg	116
182.388	2	1_1	1	0.7932141	c4.jpg	116
186.788	2	5_4	2	0.9759131	c21.jpg	116
192.648	2	1_1	1	0.7755172	c9.jpg	116
197.77	2	5_3	2	0.6982648	c17.jpg	116
202.164	2	5_3	2	1.243972	c13.jpg	116
206.927	2	5_5	2	0.6814661	c21.jpg	116
211.686	2	5_2	2	1.121575	c6.jpg	116
217.174	2	5_2	1	1.157589	c16.jpg	116
225.21	2	1_1	1	1.168887	c20.jpg	116
232.512	2	5_3	2	1.151468	c6.jpg	116
238.364	2	1_1	1	1.161726	c23.jpg	116
243.127	2	5_3	2	1.154272	c19.jpg	116
250.795	2	5_4	2	0.7808375	c6.jpg	116
255.209	2	5_2	2	1.007233	c1.jpg	116
262.162	2	5_3	2	1.007345	c1.jpg	116
266.195	2	5_4	2	0.6692652	c8.jpg	116
270.961	2	1_1	1	0.9253463	c22.jpg	116
278.631	2	5_4	2	1.564425	c19.jpg	116
285.575	2	5_3	2	1.135539	c10.jpg	116
291.795	2	5_5	2	0.6115899	c8.jpg	116
297.641	2	5_4	2	0.5981398	c17.jpg	116
304.225	2	1_1	1	0.8826672	c5.jpg	116
312.256	2	5_4	2	1.243785	c13.jpg	116
319.562	2	5_4	2	1.017468	c10.jpg	116
326.504	2	5_5	2	0.6953333	c6.jpg	116
332.728	2	5_3	2	0.9007362	c16.jpg	116
339.326	2	5_4	2	0.9941882	c1.jpg	116
343.357	2	5_3	2	1.621051	c18.jpg	116
349.585	2	5_2	2	1.330143	c2.jpg	116
354.713	2	5_4	2	0.7145163	c18.jpg	116
362.748	2	5_5	2	0.606572	c17.jpg	116
367.155	2	5_3	2	0.7704603	c2.jpg	116
372.281	2	5_5	2	0.7128797	c13.jpg	116
376.33	2	5_4	2	0.6770053	c2.jpg	116
383.994	2	5_5	2	0.5514218	c18.jpg	116
392.028	2	5_4	2	0.603422	c16.jpg	116
396.803	2	5_5	2	0.9017939	c2.jpg	116
404.467	2	5_5	2	0.5748346	c16.jpg	116
409.974	2	5_5	2	1.504015	c1.jpg	116
417.639	2	5_5	2	1.528631	c19.jpg	116
423.13	2	5_5	2	0.7706869	c11.jpg	116
430.437	2	5_5	2	0.5916975	c10.jpg	116
3.03	2	5_1	1	1.10759	c5.jpg	120
8.9	2	5_2	1	0.7107994	c5.jpg	120
15.5	2	5_1	1	0.8729397	c20.jpg	120
23.53	2	5_1	1	0.9847365	c9.jpg	120
28.67	2	5_1	1	1.11801	c7.jpg	120
35.61	2	5_3	2	1.139199	c5.jpg	120
39.65	2	5_1	1	1.185401	c4.jpg	120
46.22	2	5_2	2	0.919348	c4.jpg	120
51.36	2	5_1	1	1.497488	c14.jpg	120
56.11	2	5_2	NA	NA	c9.jpg	120
61.97	2	5_2	2	1.013024	c7.jpg	120
69.27	2	5_1	1	0.9906498	c22.jpg	120
75.12	2	5_1	1	0.9207122	c12.jpg	120
80.97	2	5_3	2	0.8365035	c9.jpg	120
87.55	2	5_4	2	0.702829	c9.jpg	120
95.22	2	1_1	1	1.001823	c6.jpg	120
99.99	2	5_1	1	0.9205955	c24.jpg	120
104.76	2	5_1	1	1.096723	c15.jpg	120
110.23	2	5_2	2	0.9551869	c20.jpg	120
115.73	2	5_2	2	1.000498	c24.jpg	120
123.03	2	1_1	1	1.814972	c19.jpg	120
129.62	2	5_2	2	0.8295641	c14.jpg	120
137.66	2	5_1	1	1.256011	c23.jpg	120
142.42	2	5_2	2	0.9421758	c15.jpg	120
147.18	2	5_3	2	0.9765793	c4.jpg	120
153.39	2	5_2	2	1.289202	c22.jpg	120
161.09	2	5_1	1	1.22615	c3.jpg	120
166.22	2	5_3	2	0.9452913	c15.jpg	120
171.39	2	5_2	2	0.8906653	c3.jpg	120
175.43	2	5_3	2	0.9682285	c7.jpg	120
183.47	2	1_1	1	1.115433	c11.jpg	120
187.5	2	5_2	2	1.475627	c23.jpg	120
192.99	2	5_2	2	1.222311	c12.jpg	120
200.67	2	5_3	2	0.9143702	c20.jpg	120
208.35	2	1_1	1	0.8708629	c13.jpg	120
214.57	2	5_3	2	0.6861731	c22.jpg	120
219.33	2	5_3	2	1.526378	c14.jpg	120
226.28	2	5_3	2	0.8635312	c23.jpg	120
233.24	2	1_1	2	1.203146	c2.jpg	120
241.29	2	5_3	2	0.8858478	c3.jpg	120
247.88	2	5_4	2	0.8475557	c20.jpg	120
253.38	2	5_4	2	0.6965286	c3.jpg	120
257.78	2	5_4	2	0.6041338	c22.jpg	120
262.19	2	1_1	1	0.9519316	c18.jpg	120
268.03	2	5_4	2	0.6957186	c7.jpg	120
274.27	2	1_1	1	1.080769	c1.jpg	120
281.21	2	5_4	2	0.8141367	c23.jpg	120
288.52	2	1_1	1	1.113989	c8.jpg	120
292.92	2	1_1	1	1.334917	c16.jpg	120
300.59	2	5_3	2	0.9442391	c24.jpg	120
307.17	2	5_3	2	1.265427	c12.jpg	120
311.21	2	5_4	2	1.11787	c12.jpg	120
316.34	2	5_5	2	1.3037	c22.jpg	120
320.74	2	5_5	2	0.9117925	c3.jpg	120
328.41	2	1_1	1	0.7806059	c10.jpg	120
333.9	2	5_5	2	1.737916	c9.jpg	120
341.2	2	5_4	2	1.00426	c5.jpg	120
347.42	2	1_1	1	0.9847468	c21.jpg	120
352.55	2	5_4	2	0.9093046	c4.jpg	120
359.87	2	5_5	2	0.7478693	c5.jpg	120
363.9	2	1_1	1	1.090707	c17.jpg	120
371.2	2	5_5	2	1.313729	c20.jpg	120
379.24	2	5_5	2	0.7294619	c12.jpg	120
386.19	2	5_4	2	0.8922441	c15.jpg	120
392.4	2	5_5	2	1.200673	c4.jpg	120
396.43	2	5_4	2	0.6697634	c24.jpg	120
400.83	2	5_5	2	0.8305209	c15.jpg	120
406.68	2	5_4	2	0.7621214	c14.jpg	120
412.17	2	5_5	2	0.6258986	c24.jpg	120
416.56	2	5_5	2	0.8370108	c7.jpg	120
424.59	2	5_5	2	0.866254	c14.jpg	120
431.54	2	5_5	2	0.8294386	c23.jpg	120
3	2	5_1	NA	NA	c15.jpg	123
7.4	2	5_1	1	0.7406501	c3.jpg	123
12.2	2	5_1	1	0.6782277	c5.jpg	123
19.5	2	5_1	1	0.7945959	c22.jpg	123
27.5	2	1_1	1	0.7759863	c16.jpg	123
33.4	2	5_1	1	0.6461043	c14.jpg	123
41.1	2	5_1	1	0.8976349	c12.jpg	123
46.9	2	5_1	1	0.7689581	c20.jpg	123
52.4	2	1_1	1	0.8023994	c11.jpg	123
57.1	2	5_1	1	0.8054098	c23.jpg	123
62.3	2	5_2	2	1.428189	c12.jpg	123
67.8	2	5_2	2	1.361545	c5.jpg	123
74.7	2	5_1	1	1.158021	c4.jpg	123
82	2	5_1	1	1.479817	c9.jpg	123
90	2	5_3	2	0.7861073	c12.jpg	123
94.1	2	5_1	1	1.240964	c7.jpg	123
98.8	2	5_1	1	1.400578	c24.jpg	123
105	2	5_3	2	1.018993	c5.jpg	123
113.1	2	5_2	2	1.736507	c20.jpg	123
119.3	2	1_1	1	1.259313	c8.jpg	123
124.8	2	5_4	2	0.7000897	c12.jpg	123
131	2	5_2	1	1.043776	c23.jpg	123
137.9	2	5_2	2	0.975383	c24.jpg	123
142.7	2	5_2	2	1.076845	c7.jpg	123
148.9	2	1_1	2	1.39127	c21.jpg	123
156.6	2	1_1	1	1.49908	c1.jpg	123
164.6	2	5_5	2	0.9170004	c12.jpg	123
171.2	2	5_3	2	1.039123	c20.jpg	123
178.9	2	5_2	2	1.384826	c14.jpg	123
186.9	2	5_3	2	1.392986	c23.jpg	123
193.9	2	5_2	1	1.225825	c3.jpg	123
199	2	1_1	1	1.581819	c10.jpg	123
203.4	2	5_3	2	1.597529	c7.jpg	123
207.8	2	1_1	1	1.144415	c19.jpg	123
211.8	2	5_4	2	1.116442	c20.jpg	123
216.2	2	5_4	2	1.662424	c23.jpg	123
222.8	2	5_2	2	1.51583	c9.jpg	123
229	2	1_1	1	1.249985	c17.jpg	123
235.9	2	5_2	1	1.387301	c22.jpg	123
241.8	2	5_2	2	1.403217	c4.jpg	123
247.6	2	5_3	2	1.019215	c22.jpg	123
251.7	2	5_5	2	1.100698	c20.jpg	123
259.3	2	5_3	2	0.9094227	c3.jpg	123
264.5	2	5_4	2	0.9561588	c22.jpg	123
268.5	2	5_3	NA	NA	c24.jpg	123
274	2	5_4	2	0.6794432	c24.jpg	123
281.3	2	5_4	2	1.394086	c7.jpg	123
285.3	2	5_4	2	1.200375	c3.jpg	123
290.1	2	5_3	2	0.8241194	c14.jpg	123
297.7	2	1_1	1	1.039799	c6.jpg	123
304	2	5_3	2	0.7664916	c9.jpg	123
309.1	2	5_4	2	1.019132	c9.jpg	123
315.7	2	5_4	2	1.71513	c14.jpg	123
321.2	2	5_5	2	0.7424371	c22.jpg	123
328.1	2	5_2	1	1.136954	c15.jpg	123
335.4	2	1_1	1	1.010581	c2.jpg	123
340.5	2	5_5	2	1.095653	c7.jpg	123
347.1	2	5_4	2	1.185276	c5.jpg	123
353	2	1_1	1	1.458244	c13.jpg	123
359.5	2	5_3	2	1.112774	c15.jpg	123
363.9	2	1_1	NA	NA	c18.jpg	123
371.2	2	5_5	2	0.879444	c24.jpg	123
377.8	2	5_4	NA	NA	c15.jpg	123
385.8	2	5_5	2	1.47214	c23.jpg	123
391	2	5_3	2	0.8473561	c4.jpg	123
396.8	2	5_5	2	0.6561139	c9.jpg	123
400.8	2	5_4	NA	NA	c4.jpg	123
406.3	2	5_5	2	0.8914973	c4.jpg	123
414	2	5_5	NA	NA	c5.jpg	123
421.3	2	5_5	2	0.9235486	c3.jpg	123
426.1	2	5_5	2	0.7438206	c14.jpg	123
433	2	5_5	2	1.054122	c15.jpg	123
3	2	5_1	1	0.8907762	c17.jpg	124
8.9	2	1_1	1	1.188191	c3.jpg	124
15.1	2	5_1	1	1.193045	c21.jpg	124
21.3	2	5_2	1	0.8215847	c17.jpg	124
25.3	2	5_1	1	0.8610021	c13.jpg	124
33.4	2	5_1	1	0.948685	c10.jpg	124
39.6	2	5_1	1	1.408124	c19.jpg	124
47.6	2	5_1	1	0.7778619	c8.jpg	124
52	2	1_1	1	0.7868179	c15.jpg	124
56.1	2	5_1	1	0.6646256	c16.jpg	124
61.5	2	5_1	1	0.6168715	c11.jpg	124
66.3	2	5_2	2	0.9695538	c21.jpg	124
71.1	2	5_2	2	0.820517	c13.jpg	124
78.7	2	5_3	2	1.031366	c21.jpg	124
86	2	5_2	2	0.920103	c10.jpg	124
93	2	5_2	2	1.143834	c8.jpg	124
97	2	5_1	1	1.221282	c1.jpg	124
104	2	5_2	2	1.208276	c11.jpg	124
109.5	2	5_3	2	0.9752765	c17.jpg	124
114.9	2	5_1	1	1.118312	c18.jpg	124
119	2	5_3	2	0.6559227	c13.jpg	124
124.5	2	5_1	1	0.8199203	c2.jpg	124
129.2	2	5_3	2	0.6929789	c10.jpg	124
135.5	2	5_2	2	1.002801	c1.jpg	124
141.3	2	5_2	2	1.943665	c16.jpg	124
148.3	2	5_4	2	0.9384965	c13.jpg	124
153.4	2	1_1	1	1.15888	c12.jpg	124
161	2	1_1	1	1.195082	c24.jpg	124
166.5	2	1_1	1	1.1693	c7.jpg	124
173.5	2	5_3	2	0.9165296	c1.jpg	124
180.1	2	5_2	2	1.372254	c2.jpg	124
184.1	2	1_1	1	0.9167603	c20.jpg	124
190.7	2	1_1	1	0.9751146	c9.jpg	124
198	2	5_3	2	1.115805	c8.jpg	124
204.2	2	5_4	2	1.087016	c21.jpg	124
209.3	2	5_4	2	0.7610322	c17.jpg	124
217.4	2	5_1	1	0.698618	c6.jpg	124
225	2	1_1	1	0.9405733	c4.jpg	124
230.2	2	5_2	2	1.356462	c6.jpg	124
237.1	2	5_4	2	1.037992	c10.jpg	124
244.8	2	5_4	2	0.7004695	c8.jpg	124
249.5	2	5_5	NA	NA	c17.jpg	124
253.9	2	5_5	2	0.9344723	c10.jpg	124
259.1	2	5_2	1	1.579881	c18.jpg	124
266	2	5_3	2	1.203544	c2.jpg	124
270.4	2	1_1	1	1.055195	c14.jpg	124
276.3	2	5_5	2	0.8919908	c21.jpg	124
283.6	2	5_2	1	0.790499	c19.jpg	124
290.1	2	5_3	2	0.8061852	c16.jpg	124
296	2	5_5	2	0.611635	c8.jpg	124
301.5	2	5_4	2	0.5285232	c16.jpg	124
309.2	2	5_4	2	0.5730718	c2.jpg	124
315.7	2	1_1	1	1.173697	c22.jpg	124
320.5	2	5_3	2	0.94327	c19.jpg	124
325.6	2	5_3	2	1.284209	c11.jpg	124
332.9	2	5_3	2	0.872541	c6.jpg	124
337.3	2	5_4	2	0.8985483	c6.jpg	124
343.9	2	5_5	2	0.5109945	c16.jpg	124
351.2	2	5_4	2	0.5514702	c1.jpg	124
357.8	2	5_4	2	0.5521667	c11.jpg	124
362.9	2	5_4	2	0.4692423	c19.jpg	124
367.3	2	5_3	2	0.6079181	c18.jpg	124
375.4	2	1_1	1	0.9381347	c5.jpg	124
383.4	2	5_5	2	0.6471995	c1.jpg	124
390.7	2	5_4	2	0.7768003	c18.jpg	124
396.9	2	5_5	2	0.677024	c18.jpg	124
402.8	2	5_5	2	0.4927816	c6.jpg	124
408.7	2	5_5	2	0.7849044	c2.jpg	124
412.7	2	5_5	2	0.9165797	c13.jpg	124
420.4	2	5_5	2	0.5363948	c11.jpg	124
428.4	2	1_1	1	1.029427	c23.jpg	124
432.8	2	5_5	2	0.7038797	c19.jpg	124
3.1	2	5_1	1	1.252322	c8.jpg	126
7.5	2	5_1	1	0.993704	c16.jpg	126
13	2	5_1	1	0.7104944	c18.jpg	126
17	2	5_1	1	0.9642848	c2.jpg	126
22.9	2	5_1	1	0.6817939	c11.jpg	126
29.8	2	5_1	1	0.867604	c21.jpg	126
36.8	2	5_1	1	0.6336222	c1.jpg	126
44.1	2	5_2	1	1.573337	c18.jpg	126
49.2	2	5_2	2	0.8102924	c11.jpg	126
54.7	2	5_2	2	0.8230882	c16.jpg	126
59.8	2	5_3	2	0.6454491	c16.jpg	126
66.4	2	5_2	2	1.615203	c8.jpg	126
70.4	2	1_1	1	0.850209	c22.jpg	126
74.8	2	5_2	2	1.262411	c2.jpg	126
79.6	2	5_2	1	1.066157	c21.jpg	126
84.7	2	5_3	2	0.9121318	c18.jpg	126
90.6	2	5_2	2	1.226495	c1.jpg	126
95	2	5_1	1	0.7691012	c10.jpg	126
99.4	2	5_1	1	0.9819088	c13.jpg	126
104.1	2	5_3	2	0.8482512	c21.jpg	126
108.9	2	5_3	2	0.7911834	c11.jpg	126
116.6	2	5_1	1	0.867418	c6.jpg	126
120.6	2	5_3	2	1.045361	c1.jpg	126
126.8	2	1_1	1	1.554704	c24.jpg	126
132.3	2	5_1	1	1.003601	c17.jpg	126
137.1	2	1_1	1	0.9845891	c5.jpg	126
143.7	2	1_1	1	0.9911859	c9.jpg	126
151.4	2	5_2	2	0.9162947	c13.jpg	126
157.6	2	5_2	2	1.047894	c6.jpg	126
165.3	2	5_4	2	0.674132	c1.jpg	126
172.2	2	5_1	NA	NA	c19.jpg	126
180.2	2	5_2	2	0.959229	c19.jpg	126
187.6	2	5_2	2	0.977677	c17.jpg	126
195.6	2	5_3	2	0.9884652	c13.jpg	126
202.9	2	5_3	2	0.696199	c8.jpg	126
209.1	2	1_1	1	1.077578	c4.jpg	126
216.1	2	5_2	2	0.8931166	c10.jpg	126
223.7	2	1_1	1	1.120138	c23.jpg	126
228.9	2	5_3	2	0.983385	c2.jpg	126
233.3	2	5_4	2	1.012126	c21.jpg	126
240.6	2	5_4	2	0.8078386	c2.jpg	126
246.4	2	5_3	2	1.004056	c17.jpg	126
253	2	5_4	2	0.6510706	c18.jpg	126
258.1	2	1_1	1	0.9595583	c14.jpg	126
264.4	2	5_3	2	0.604264	c6.jpg	126
269.8	2	5_4	2	1.056026	c6.jpg	126
275.3	2	5_4	2	0.6383889	c11.jpg	126
281.9	2	5_4	2	0.5754691	c8.jpg	126
288.2	2	1_1	1	1.26894	c3.jpg	126
292.9	2	1_1	1	1.367864	c20.jpg	126
300.2	2	1_1	1	1.214796	c7.jpg	126
308.3	2	5_5	2	0.7893955	c2.jpg	126
313.8	2	5_4	2	0.9804523	c13.jpg	126
321.1	2	5_5	2	0.7607003	c13.jpg	126
326.9	2	5_3	2	1.085832	c19.jpg	126
335	2	5_5	2	0.7234409	c6.jpg	126
340.8	2	5_4	2	0.6178143	c19.jpg	126
347	2	1_1	2	1.322899	c12.jpg	126
351.1	2	5_5	2	0.8613948	c19.jpg	126
359.1	2	5_5	2	0.6356005	c11.jpg	126
363.8	2	5_4	2	1.121621	c16.jpg	126
370.4	2	5_4	2	0.6973133	c17.jpg	126
378.1	2	1_1	NA	NA	c15.jpg	126
383.9	2	5_5	2	0.5962663	c16.jpg	126
392	2	5_3	2	0.7167675	c10.jpg	126
398.5	2	5_5	2	0.6480634	c18.jpg	126
405.5	2	5_5	2	0.5175233	c8.jpg	126
413.2	2	5_5	2	0.6675627	c21.jpg	126
417.6	2	5_5	2	0.7222239	c17.jpg	126
421.6	2	5_4	2	0.693807	c10.jpg	126
428.5	2	5_5	2	0.8968167	c10.jpg	126
432.6	2	5_5	2	1.097494	c1.jpg	126
3.1	2	1_1	NA	NA	c11.jpg	128
9.7	2	5_1	NA	NA	c14.jpg	128
14.8	2	5_1	NA	NA	c3.jpg	128
22.5	2	5_1	NA	NA	c15.jpg	128
29.8	2	5_1	NA	NA	c12.jpg	128
36	2	5_2	2	1.996384	c15.jpg	128
41.5	2	5_2	1	1.105615	c12.jpg	128
48.4	2	5_1	NA	NA	c24.jpg	128
55	2	5_2	2	1.130059	c24.jpg	128
61.6	2	1_1	1	1.35157	c18.jpg	128
69.3	2	5_1	1	1.136394	c4.jpg	128
73.7	2	5_2	2	1.320308	c14.jpg	128
78.8	2	5_1	1	0.9686774	c20.jpg	128
83.9	2	5_3	2	1.016422	c15.jpg	128
92	2	5_2	1	1.263764	c3.jpg	128
96	2	5_2	2	1.065664	c4.jpg	128
103.7	2	5_1	1	1.283507	c7.jpg	128
109.9	2	5_2	2	1.214143	c7.jpg	128
117.6	2	5_1	1	1.621934	c5.jpg	128
124.1	2	5_1	1	1.57246	c23.jpg	128
131.4	2	5_3	2	1.195847	c7.jpg	128
135.8	2	5_2	2	1.212257	c23.jpg	128
142.8	2	5_4	2	1.076521	c7.jpg	128
147.2	2	5_2	2	0.8664533	c20.jpg	128
154.8	2	1_1	1	1.470449	c10.jpg	128
159.2	2	5_1	NA	NA	c22.jpg	128
167.3	2	5_3	2	1.33223	c3.jpg	128
173.9	2	1_1	1	1.456017	c17.jpg	128
178.6	2	1_1	2	1.617075	c19.jpg	128
184.8	2	5_2	2	1.157107	c5.jpg	128
192.5	2	5_3	NA	NA	c12.jpg	128
198.4	2	5_1	1	1.04684	c9.jpg	128
202.4	2	5_3	2	0.9607795	c14.jpg	128
209.4	2	5_3	2	1.171531	c4.jpg	128
215.6	2	5_4	2	0.835107	c4.jpg	128
221.4	2	5_3	2	0.9410641	c24.jpg	128
226.9	2	5_4	2	1.791805	c24.jpg	128
231	2	1_1	1	1.288872	c1.jpg	128
235	2	1_1	1	1.766149	c13.jpg	128
240.9	2	5_5	1	1.104267	c24.jpg	128
247.8	2	5_2	2	1.427527	c9.jpg	128
255.1	2	5_3	NA	NA	c5.jpg	128
259.9	2	5_4	2	1.725815	c14.jpg	128
263.9	2	5_4	2	1.532082	c5.jpg	128
269.8	2	5_3	2	1.491637	c23.jpg	128
274.9	2	5_2	NA	NA	c22.jpg	128
279.6	2	5_4	2	0.6516923	c23.jpg	128
284.8	2	5_3	2	1.016379	c22.jpg	128
292.1	2	5_4	2	0.896039	c22.jpg	128
296.5	2	5_5	2	1.044479	c23.jpg	128
301.2	2	5_4	2	1.326692	c15.jpg	128
306	2	5_5	2	1.046356	c15.jpg	128
310.1	2	1_1	1	1.358905	c2.jpg	128
317	2	5_5	2	1.412348	c22.jpg	128
322.5	2	5_3	2	0.7511098	c20.jpg	128
328	2	5_4	2	1.015367	c3.jpg	128
334.9	2	1_1	2	1.169224	c21.jpg	128
343	2	5_3	2	1.070007	c9.jpg	128
350.3	2	5_4	2	0.8235282	c9.jpg	128
354.7	2	5_5	2	0.6571267	c9.jpg	128
360.5	2	1_1	2	1.317274	c16.jpg	128
367.8	2	5_4	2	1.599346	c20.jpg	128
373.3	2	1_1	1	1.384452	c8.jpg	128
378.5	2	5_5	2	1.170198	c3.jpg	128
386.5	2	1_1	NA	NA	c6.jpg	128
392	2	5_5	NA	NA	c5.jpg	128
398.6	2	5_5	1	0.9883881	c14.jpg	128
403.3	2	5_4	2	1.557538	c12.jpg	128
411.4	2	5_5	2	1.454238	c20.jpg	128
417.6	2	5_5	2	1.179381	c4.jpg	128
423.8	2	5_5	2	1.71256	c7.jpg	128
431.8	2	5_5	NA	NA	c12.jpg	128
3.067	2	5_1	1	1.986563	c5.jpg	131
10.031	2	5_1	1	1.116427	c7.jpg	131
15.175	2	5_1	1	1.248593	c4.jpg	131
20.675	2	5_1	1	1.213502	c15.jpg	131
27.63	2	5_1	1	1.39964	c9.jpg	131
34.611	2	5_1	NA	NA	c22.jpg	131
39.382	2	5_1	2	1.059362	c24.jpg	131
45.228	2	5_2	2	1.801169	c24.jpg	131
51.443	2	5_2	2	1.467688	c15.jpg	131
58.755	2	5_1	NA	NA	c12.jpg	131
64.975	2	1_1	2	1.666677	c18.jpg	131
69.384	2	5_1	1	1.457183	c20.jpg	131
74.512	2	5_2	2	1.54608	c7.jpg	131
78.903	2	5_2	1	1.93674	c5.jpg	131
84.751	2	5_3	2	1.389399	c5.jpg	131
91.331	2	5_4	2	1.551045	c5.jpg	131
97.912	2	5_3	2	1.227537	c7.jpg	131
103.054	2	1_1	1	1.698002	c10.jpg	131
109.65	2	5_1	NA	NA	c14.jpg	131
115.535	2	5_1	1	1.659628	c3.jpg	131
120.304	2	5_1	2	1.107909	c23.jpg	131
126.157	2	5_3	NA	NA	c15.jpg	131
132.743	2	5_5	1	1.377657	c5.jpg	131
140.043	2	5_2	NA	NA	c9.jpg	131
147.007	2	5_2	2	1.892236	c4.jpg	131
153.592	2	5_2	2	1.682006	c23.jpg	131
159.831	2	1_1	1	1.092603	c21.jpg	131
166.056	2	5_2	2	1.83048	c12.jpg	131
173.735	2	5_4	2	1.43062	c15.jpg	131
181.792	2	5_2	NA	NA	c3.jpg	131
186.207	2	1_1	1	1.19713	c19.jpg	131
190.25	2	5_2	2	0.4724219	c22.jpg	131
194.287	2	5_4	2	1.224614	c7.jpg	131
198.322	2	5_3	NA	NA	c4.jpg	131
202.722	2	5_2	2	1.547172	c14.jpg	131
209.308	2	1_1	NA	NA	c13.jpg	131
216.621	2	5_3	NA	NA	c9.jpg	131
222.124	2	1_1	NA	NA	c16.jpg	131
227.977	2	5_3	2	1.05805	c23.jpg	131
236.016	2	5_4	2	1.119108	c23.jpg	131
243.323	2	5_3	2	1.723299	c12.jpg	131
251.002	2	1_1	2	1.950561	c6.jpg	131
257.958	2	1_1	1	1.450178	c8.jpg	131
265.624	2	5_4	NA	NA	c4.jpg	131
269.66	2	5_3	NA	NA	c14.jpg	131
276.967	2	5_3	2	1.233937	c22.jpg	131
284.638	2	5_4	2	1.175775	c9.jpg	131
289.411	2	5_3	2	1.978086	c3.jpg	131
294.205	2	1_1	1	1.015223	c1.jpg	131
299.332	2	1_1	1	1.699138	c11.jpg	131
304.1	2	5_5	2	1.070466	c23.jpg	131
312.14	2	5_5	2	1.288386	c4.jpg	131
319.105	2	1_1	1	1.349917	c2.jpg	131
324.604	2	5_2	NA	NA	c20.jpg	131
328.997	2	5_3	2	1.207239	c20.jpg	131
334.852	2	5_4	2	1.136701	c12.jpg	131
339.975	2	5_4	1	1.345999	c20.jpg	131
346.186	2	5_5	2	1.696205	c20.jpg	131
353.878	2	1_1	1	1.351385	c17.jpg	131
361.924	2	5_3	2	1.763863	c24.jpg	131
368.141	2	5_4	2	1.415681	c24.jpg	131
372.174	2	5_5	2	1.900563	c7.jpg	131
376.951	2	5_4	2	1.52684	c3.jpg	131
380.99	2	5_5	2	1.191776	c24.jpg	131
389.029	2	5_5	2	1.118978	c9.jpg	131
394.52	2	5_4	2	1.386423	c14.jpg	131
399.65	2	5_5	2	1.201649	c14.jpg	131
407.689	2	5_4	NA	NA	c22.jpg	131
413.179	2	5_5	2	1.167811	c15.jpg	131
417.587	2	5_5	2	1.466207	c22.jpg	131
424.9	2	5_5	2	1.324924	c3.jpg	131
430.392	2	5_5	2	1.125825	c12.jpg	131
3.067	2	5_1	1	1.001399	c19.jpg	136
11.152	2	1_1	1	0.7149928	c12.jpg	136
15.195	2	5_1	1	0.5765635	c21.jpg	136
21.78	2	5_1	1	0.628847	c6.jpg	136
26.914	2	5_1	1	0.6538075	c11.jpg	136
32.406	2	5_2	1	0.5287646	c6.jpg	136
37.18	2	1_1	1	0.5549933	c24.jpg	136
44.5	2	5_1	1	0.8076298	c10.jpg	136
48.547	2	1_1	1	0.6362107	c4.jpg	136
54.757	2	5_2	2	0.9667964	c21.jpg	136
59.168	2	5_1	1	1.102335	c16.jpg	136
65.421	2	5_1	1	0.9295743	c1.jpg	136
70.567	2	5_1	1	1.593108	c17.jpg	136
78.233	2	5_2	1	1.206257	c11.jpg	136
82.656	2	1_1	1	1.359712	c14.jpg	136
87.419	2	5_2	2	0.9039614	c17.jpg	136
95.46	2	5_1	1	0.9851117	c18.jpg	136
101.316	2	5_3	2	0.631208	c11.jpg	136
109.352	2	5_3	2	0.6642493	c6.jpg	136
115.928	2	5_3	2	0.5610775	c17.jpg	136
122.887	2	5_1	2	1.061006	c13.jpg	136
130.184	2	5_3	2	1.01014	c21.jpg	136
135.679	2	1_1	1	1.655493	c20.jpg	136
140.091	2	1_1	1	1.053051	c15.jpg	136
145.208	2	5_4	2	0.7787985	c17.jpg	136
149.24	2	5_2	2	1.234311	c13.jpg	136
155.51	2	5_2	2	1.083074	c1.jpg	136
162.134	2	5_1	1	1.693759	c2.jpg	136
168.364	2	5_1	1	1.075514	c8.jpg	136
175.681	2	5_2	1	1.312318	c2.jpg	136
183.344	2	5_3	2	0.8963138	c13.jpg	136
188.464	2	5_4	2	0.8309433	c13.jpg	136
195.77	2	5_2	NA	NA	c10.jpg	136
200.539	2	5_2	2	0.7683296	c18.jpg	136
207.489	2	5_3	2	0.9636863	c2.jpg	136
212.253	2	5_4	2	0.6818388	c6.jpg	136
218.825	2	5_5	2	0.5857318	c13.jpg	136
226.132	2	5_3	2	0.6983074	c18.jpg	136
233.808	2	5_5	2	0.6892699	c6.jpg	136
240.408	2	5_3	2	0.9938169	c1.jpg	136
244.45	2	5_4	2	0.7205002	c1.jpg	136
252.484	2	5_2	2	0.9376329	c19.jpg	136
258.329	2	5_3	2	0.6492622	c19.jpg	136
264.182	2	5_4	2	0.6752903	c18.jpg	136
268.583	2	5_4	2	0.8427957	c2.jpg	136
274.069	2	5_2	1	0.8562017	c8.jpg	136
281.745	2	5_4	2	0.7881894	c21.jpg	136
288.692	2	5_3	2	0.9113799	c10.jpg	136
293.821	2	5_4	2	0.6984476	c10.jpg	136
298.224	2	5_5	2	0.7356783	c1.jpg	136
304.082	2	5_4	2	0.903601	c11.jpg	136
310.312	2	1_1	1	1.067277	c22.jpg	136
317.259	2	1_1	1	0.9535764	c23.jpg	136
323.142	2	1_1	1	1.016517	c7.jpg	136
330.805	2	5_2	2	1.136294	c16.jpg	136
337.753	2	5_3	2	0.8715012	c16.jpg	136
343.984	2	1_1	1	0.8480642	c9.jpg	136
350.567	2	5_3	2	0.7942713	c8.jpg	136
358.634	2	1_1	1	1.113643	c3.jpg	136
364.126	2	5_5	2	1.015634	c10.jpg	136
368.161	2	5_5	2	0.9101122	c18.jpg	136
372.918	2	5_4	2	0.8225941	c19.jpg	136
378.419	2	5_5	2	0.7171121	c2.jpg	136
385.364	2	5_4	2	0.6703626	c8.jpg	136
390.86	2	1_1	1	1.00635	c5.jpg	136
398.897	2	5_5	2	0.7109941	c8.jpg	136
406.195	2	5_5	2	0.8812715	c19.jpg	136
410.234	2	5_4	2	0.8098599	c16.jpg	136
414.991	2	5_5	2	0.6963635	c11.jpg	136
420.118	2	5_5	2	0.7362803	c17.jpg	136
427.78	2	5_5	2	0.6156598	c16.jpg	136
433.636	2	5_5	2	0.6770779	c21.jpg	136
3.08	2	5_1	1	1.637901	c14.jpg	142
10.77	2	1_1	1	0.6994815	c11.jpg	142
17.75	2	5_1	1	0.4985725	c12.jpg	142
22.87	2	5_2	2	0.9057956	c12.jpg	142
30.57	2	5_1	1	0.8843873	c15.jpg	142
34.99	2	5_1	1	0.7835071	c24.jpg	142
40.12	2	5_3	1	0.7042913	c12.jpg	142
47.81	2	5_1	1	0.6799183	c5.jpg	142
53.3	2	5_1	1	0.6624864	c20.jpg	142
59.87	2	5_2	2	0.8659146	c20.jpg	142
64.63	2	5_2	1	0.9896321	c14.jpg	142
71.6	2	5_1	1	1.007049	c3.jpg	142
78.57	2	5_1	1	1.236409	c7.jpg	142
85.15	2	5_2	2	1.408264	c15.jpg	142
90.27	2	5_2	1	1.658833	c5.jpg	142
95.76	2	5_3	2	0.7855848	c5.jpg	142
103.45	2	5_2	2	1.302522	c3.jpg	142
109.66	2	1_1	2	1.247729	c16.jpg	142
116.25	2	5_1	2	1.135321	c4.jpg	142
123.56	2	5_2	1	0.8218198	c7.jpg	142
130.52	2	1_1	NA	NA	c19.jpg	142
136.37	2	5_3	2	0.841412	c15.jpg	142
141.14	2	5_1	2	1.895594	c23.jpg	142
145.19	2	5_1	NA	NA	c22.jpg	142
153.27	2	1_1	1	0.9163251	c2.jpg	142
160.57	2	1_1	1	0.749265	c6.jpg	142
168.6	2	5_4	2	1.193907	c12.jpg	142
174.83	2	5_1	1	1.84283	c9.jpg	142
182.14	2	1_1	NA	NA	c10.jpg	142
186.53	2	5_2	1	1.163887	c22.jpg	142
193.49	2	1_1	1	1.213376	c13.jpg	142
198.26	2	1_1	1	0.8977272	c8.jpg	142
202.29	2	5_2	2	1.069133	c9.jpg	142
209.96	2	5_3	2	1.39164	c14.jpg	142
216.17	2	5_2	1	1.025441	c4.jpg	142
222.74	2	5_4	1	1.635675	c5.jpg	142
228.59	2	5_3	2	1.358706	c22.jpg	142
235.9	2	5_3	2	0.7605361	c4.jpg	142
241.74	2	5_4	2	0.6373157	c4.jpg	142
248.69	2	5_2	1	1.193902	c24.jpg	142
256	2	5_2	NA	NA	c23.jpg	142
262.6	2	1_1	1	0.8749727	c21.jpg	142
270.27	2	5_3	2	0.7080081	c24.jpg	142
274.67	2	5_3	2	0.8856107	c20.jpg	142
282.01	2	1_1	2	1.09642	c1.jpg	142
287.14	2	5_5	2	0.6534946	c12.jpg	142
295.18	2	5_4	2	0.7687528	c14.jpg	142
299.94	2	5_3	2	1.043929	c7.jpg	142
303.98	2	5_3	2	0.6864392	c9.jpg	142
312.02	2	5_4	2	0.8471244	c9.jpg	142
317.51	2	5_3	2	0.9268772	c23.jpg	142
322.28	2	1_1	2	1.633635	c17.jpg	142
327.77	2	5_4	2	0.7672203	c23.jpg	142
333.63	2	5_3	2	0.9973414	c3.jpg	142
338.03	2	5_4	2	0.9869099	c7.jpg	142
343.89	2	5_5	2	0.6326274	c23.jpg	142
347.95	2	1_1	2	1.264615	c18.jpg	142
354.17	2	5_5	2	0.7405196	c9.jpg	142
359.67	2	5_4	2	0.7984198	c3.jpg	142
363.71	2	5_5	2	0.8880209	c14.jpg	142
370.28	2	5_4	2	0.9804547	c15.jpg	142
375.77	2	5_5	2	0.7756708	c15.jpg	142
379.81	2	5_4	2	0.929258	c20.jpg	142
384.93	2	5_4	2	1.475183	c22.jpg	142
390.78	2	5_5	2	0.767915	c7.jpg	142
397	2	5_4	2	0.7554727	c24.jpg	142
401.39	2	5_5	1	1.60547	c5.jpg	142
406.15	2	5_5	2	0.6314928	c24.jpg	142
410.54	2	5_5	2	1.482828	c20.jpg	142
418.58	2	5_5	2	0.8125937	c3.jpg	142
426.62	2	5_5	2	1.361086	c4.jpg	142
432.84	2	5_5	2	0.8287984	c22.jpg	142
3.1	2	5_1	NA	NA	c1.jpg	144
7.9	2	5_1	1	0.9569545	c8.jpg	144
12.3	2	5_1	1	0.6208261	c11.jpg	144
18.5	2	5_1	1	0.8805429	c17.jpg	144
25.5	2	5_1	1	1.047712	c21.jpg	144
32.8	2	1_1	1	0.824557	c15.jpg	144
38.7	2	5_1	1	0.9808691	c16.jpg	144
43.8	2	5_1	1	0.9463219	c2.jpg	144
47.9	2	5_2	2	1.253358	c1.jpg	144
53.7	2	5_2	2	1.159594	c17.jpg	144
60.7	2	1_1	2	0.9011016	c24.jpg	144
65.8	2	5_1	1	0.8598006	c18.jpg	144
72.8	2	1_1	1	0.7969383	c5.jpg	144
79.4	2	5_1	1	1.428334	c19.jpg	144
84.2	2	5_1	1	1.074979	c6.jpg	144
90	2	1_1	1	1.564886	c4.jpg	144
94.8	2	5_2	2	1.880014	c11.jpg	144
102.4	2	5_2	2	1.336642	c16.jpg	144
109	2	1_1	1	1.524268	c3.jpg	144
116.7	2	5_3	2	1.068303	c1.jpg	144
124	2	1_1	1	1.504868	c20.jpg	144
131	2	5_3	2	1.234578	c11.jpg	144
135.4	2	5_3	2	1.771487	c16.jpg	144
142.7	2	1_1	1	1.039961	c22.jpg	144
150.7	2	1_1	1	1.408466	c23.jpg	144
154.8	2	5_2	2	1.196864	c8.jpg	144
162.4	2	5_3	2	1.005246	c17.jpg	144
170.5	2	5_4	2	1.190872	c11.jpg	144
174.9	2	5_2	1	1.490085	c18.jpg	144
181.8	2	5_1	1	1.969164	c10.jpg	144
188	2	5_2	2	1.365047	c2.jpg	144
192.8	2	5_2	2	1.271777	c21.jpg	144
200.1	2	5_4	2	1.22195	c17.jpg	144
206.7	2	5_2	NA	NA	c6.jpg	144
210.7	2	5_2	NA	NA	c10.jpg	144
217.3	2	5_2	1	1.89775	c19.jpg	144
225.3	2	5_1	1	1.623306	c13.jpg	144
230.9	2	5_4	2	1.239487	c1.jpg	144
236	2	5_5	2	1.604412	c11.jpg	144
240	2	5_3	2	1.311969	c21.jpg	144
245.5	2	5_3	2	1.610092	c18.jpg	144
249.9	2	5_5	2	0.8873454	c17.jpg	144
257.9	2	5_5	2	0.6775103	c1.jpg	144
262.7	2	5_3	1	1.098225	c10.jpg	144
268.9	2	1_1	1	1.317014	c14.jpg	144
276.2	2	5_2	NA	NA	c13.jpg	144
282.1	2	5_4	2	1.152814	c16.jpg	144
287.2	2	5_5	2	0.8632835	c16.jpg	144
292.7	2	5_3	NA	NA	c13.jpg	144
296.7	2	5_4	1	1.884837	c10.jpg	144
304.8	2	5_4	2	0.8311069	c13.jpg	144
310.6	2	5_3	1	1.742383	c6.jpg	144
317.6	2	5_4	2	1.012058	c21.jpg	144
323.1	2	5_3	2	0.9850315	c2.jpg	144
328.6	2	5_4	2	1.363025	c6.jpg	144
334.4	2	5_4	2	0.8590309	c18.jpg	144
338.4	2	5_5	2	1.861388	c21.jpg	144
344.7	2	5_5	2	0.8502041	c18.jpg	144
349.4	2	5_3	2	1.769687	c19.jpg	144
356	2	5_4	2	1.204967	c2.jpg	144
363.7	2	5_4	1	1.383672	c19.jpg	144
371	2	5_5	NA	NA	c13.jpg	144
378.7	2	5_3	2	1.258307	c8.jpg	144
386.7	2	5_5	NA	NA	c19.jpg	144
393.3	2	1_1	1	1.326118	c12.jpg	144
399.6	2	1_1	NA	NA	c7.jpg	144
405	2	5_5	2	1.203872	c10.jpg	144
409.5	2	5_5	2	0.8318867	c2.jpg	144
414.6	2	5_4	2	0.7958568	c8.jpg	144
419.7	2	1_1	1	1.029205	c9.jpg	144
424.1	2	5_5	2	1.101704	c6.jpg	144
430.3	2	5_5	2	1.332422	c8.jpg	144
3.072	2	5_1	NA	NA	c11.jpg	149
8.578	2	1_1	1	0.7058928	c15.jpg	149
15.176	2	5_1	1	0.7096144	c10.jpg	149
19.593	2	5_1	1	1.208515	c16.jpg	149
25.464	2	5_1	1	1.09672	c13.jpg	149
32.784	2	5_1	1	0.9555439	c17.jpg	149
39.387	2	5_1	1	0.9611192	c8.jpg	149
47.061	2	5_2	1	0.9698333	c17.jpg	149
52.18	2	5_3	2	0.8982844	c17.jpg	149
60.214	2	5_2	2	1.381237	c10.jpg	149
64.64	2	5_1	1	1.121215	c1.jpg	149
70.134	2	1_1	1	1.036125	c4.jpg	149
76.389	2	1_1	2	1.252882	c12.jpg	149
81.199	2	5_1	1	2.63E-04	c2.jpg	149
86.317	2	5_2	2	1.14877	c13.jpg	149
91.825	2	1_1	1	1.44556	c20.jpg	149
99.506	2	5_2	2	1.113813	c1.jpg	149
106.823	2	5_1	1	1.061661	c6.jpg	149
110.872	2	5_1	1	1.448481	c21.jpg	149
116.719	2	1_1	1	1.469792	c22.jpg	149
122.589	2	5_1	1	0.9631584	c18.jpg	149
129.534	2	5_2	2	1.30336	c18.jpg	149
134.662	2	5_3	2	1.178015	c13.jpg	149
141.263	2	5_1	1	1.203721	c19.jpg	149
146.77	2	1_1	1	1.355901	c23.jpg	149
154.808	2	5_3	1	1.313082	c18.jpg	149
159.565	2	5_2	2	1.555111	c19.jpg	149
165.052	2	5_4	2	0.8549893	c17.jpg	149
173.08	2	5_3	2	0.9911125	c10.jpg	149
180.386	2	5_4	2	1.204339	c13.jpg	149
186.617	2	5_2	2	1.258806	c2.jpg	149
193.929	2	5_2	2	1.184463	c8.jpg	149
200.866	2	5_2	2	1.467669	c11.jpg	149
208.178	2	5_5	2	0.6584577	c17.jpg	149
214.054	2	1_1	1	1.416013	c9.jpg	149
221.361	2	5_3	2	1.123861	c19.jpg	149
228.308	2	5_4	2	0.8514316	c19.jpg	149
236.338	2	5_3	2	0.9036116	c8.jpg	149
244.025	2	5_3	2	0.9357914	c1.jpg	149
248.424	2	5_4	2	1.388921	c18.jpg	149
253.554	2	5_3	2	1.970114	c11.jpg	149
259.395	2	5_2	NA	NA	c21.jpg	149
263.433	2	5_4	2	0.8143132	c8.jpg	149
267.831	2	5_5	2	0.7236361	c19.jpg	149
274.779	2	1_1	1	1.412956	c14.jpg	149
280.269	2	5_2	2	1.108011	c6.jpg	149
287.936	2	5_5	2	0.9670413	c8.jpg	149
295.972	2	5_2	1	1.893509	c16.jpg	149
304.009	2	5_3	2	0.8463857	c21.jpg	149
310.23	2	5_3	2	0.9838148	c2.jpg	149
314.259	2	5_4	2	1.134984	c21.jpg	149
320.101	2	5_3	2	0.7601472	c16.jpg	149
326.318	2	5_5	2	0.8465335	c18.jpg	149
331.091	2	1_1	1	1.361682	c24.jpg	149
336.234	2	1_1	1	1.052177	c3.jpg	149
340.269	2	5_4	2	1.207105	c10.jpg	149
345.397	2	5_3	2	0.8962437	c6.jpg	149
351.98	2	5_4	2	0.6451967	c11.jpg	149
356.019	2	5_4	2	1.080968	c6.jpg	149
360.786	2	5_5	2	0.7459379	c11.jpg	149
365.541	2	5_4	2	1.144215	c16.jpg	149
372.503	2	1_1	1	1.322162	c5.jpg	149
376.893	2	5_5	2	1.048695	c6.jpg	149
384.569	2	5_4	2	0.9831975	c1.jpg	149
391.156	2	1_1	NA	NA	c7.jpg	149
398.095	2	5_5	2	0.7771154	c16.jpg	149
402.861	2	5_5	1	1.035261	c13.jpg	149
410.539	2	5_5	2	1.082297	c21.jpg	149
416.753	2	5_5	2	0.9934925	c10.jpg	149
421.15	2	5_5	2	0.8129675	c1.jpg	149
427.742	2	5_4	2	1.059129	c2.jpg	149
431.793	2	5_5	2	0.5501018	c2.jpg	149
3.05	2	1_1	1	1.785639	c18.jpg	152
10.03	2	5_1	1	0.8457855	c15.jpg	152
14.1	2	5_1	1	1.010384	c3.jpg	152
19.26	2	5_1	1	0.8303674	c23.jpg	152
26.97	2	1_1	1	1.029211	c10.jpg	152
32.12	2	5_1	1	1.293354	c12.jpg	152
38.7	2	5_1	1	0.8405362	c9.jpg	152
44.92	2	5_1	1	1.556764	c4.jpg	152
50.77	2	1_1	1	1.244701	c17.jpg	152
55.53	2	1_1	NA	NA	c13.jpg	152
61.77	2	5_1	1	0.7204378	c22.jpg	152
69.08	2	5_2	2	1.045968	c22.jpg	152
77.12	2	1_1	1	1.46091	c21.jpg	152
81.19	2	5_1	1	1.568908	c5.jpg	152
88.14	2	5_2	2	0.9078869	c5.jpg	152
93.3	2	5_1	NA	NA	c14.jpg	152
99.15	2	5_2	2	1.016932	c4.jpg	152
106.47	2	5_1	NA	NA	c24.jpg	152
113.77	2	5_2	2	1.45624	c12.jpg	152
118.55	2	1_1	NA	NA	c16.jpg	152
124.04	2	5_1	NA	NA	c20.jpg	152
130.97	2	5_2	2	1.499687	c9.jpg	152
138.28	2	5_2	1	1.357774	c20.jpg	152
142.32	2	5_2	2	1.646212	c14.jpg	152
150.36	2	5_3	2	0.8352742	c9.jpg	152
158.03	2	5_1	2	0.9035945	c7.jpg	152
166.07	2	5_2	2	1.236966	c23.jpg	152
172.33	2	1_1	2	1.618789	c2.jpg	152
178.92	2	5_2	2	1.744726	c24.jpg	152
183.32	2	5_3	2	0.9733865	c22.jpg	152
187.72	2	5_3	2	1.262459	c24.jpg	152
192.85	2	5_3	2	0.7767805	c5.jpg	152
196.89	2	5_4	2	0.8493724	c9.jpg	152
203.13	2	1_1	1	1.269177	c1.jpg	152
210.8	2	5_3	2	1.278488	c12.jpg	152
216.3	2	5_2	2	1.798948	c7.jpg	152
221.06	2	5_4	2	0.9317842	c24.jpg	152
226.54	2	5_3	2	1.290867	c7.jpg	152
233.14	2	5_2	2	1.198257	c3.jpg	152
238.63	2	5_3	2	1.038919	c20.jpg	152
246.67	2	5_2	NA	NA	c15.jpg	152
253.62	2	5_5	2	0.7735147	c9.jpg	152
259.47	2	5_3	2	1.04196	c15.jpg	152
264.96	2	5_4	2	0.861744	c7.jpg	152
270.81	2	5_3	2	1.011393	c14.jpg	152
278.48	2	5_3	2	1.271448	c23.jpg	152
283.96	2	5_4	2	0.635069	c23.jpg	152
288	2	5_4	2	0.8217194	c22.jpg	152
295.69	2	5_3	2	1.289624	c3.jpg	152
300.81	2	5_4	2	0.8478429	c5.jpg	152
308.12	2	5_4	2	0.950388	c12.jpg	152
312.89	2	5_3	2	1.320682	c4.jpg	152
319.47	2	5_4	2	0.9496203	c15.jpg	152
323.86	2	5_4	NA	NA	c20.jpg	152
328.27	2	5_5	2	0.5759349	c15.jpg	152
334.87	2	1_1	NA	NA	c8.jpg	152
342.19	2	1_1	1	0.9960113	c19.jpg	152
346.58	2	5_5	1	1.511172	c7.jpg	152
351.34	2	5_4	2	0.8197259	c4.jpg	152
358.3	2	5_4	1	1.458688	c3.jpg	152
362.68	2	5_4	2	0.9887788	c14.jpg	152
368.9	2	1_1	1	1.587456	c6.jpg	152
374.75	2	5_5	2	0.7337469	c22.jpg	152
382.77	2	5_5	2	1.24879	c23.jpg	152
387.91	2	5_5	2	0.7144301	c24.jpg	152
391.96	2	5_5	2	1.01506	c3.jpg	152
397.81	2	5_5	2	0.6966344	c5.jpg	152
404.75	2	5_5	2	1.027587	c4.jpg	152
409.51	2	5_5	2	0.6824362	c12.jpg	152
417.19	2	5_5	2	0.8322869	c14.jpg	152
423.77	2	5_5	2	0.979997	c20.jpg	152
429.98	2	1_1	NA	NA	c11.jpg	152
3.02	2	5_1	2	1.10588	c10.jpg	154
9.97	2	5_1	2	0.6953823	c13.jpg	154
18	2	5_1	2	0.5670033	c21.jpg	154
23.86	2	1_1	2	0.74679	c15.jpg	154
30.81	2	5_2	NA	NA	c10.jpg	154
35.57	2	5_1	2	1.31586	c8.jpg	154
42.15	2	5_1	2	1.423316	c16.jpg	154
49.47	2	5_1	2	1.102456	c1.jpg	154
55.7	2	5_2	2	1.193944	c1.jpg	154
60.82	2	5_2	NA	NA	c8.jpg	154
65.58	2	5_2	NA	NA	c16.jpg	154
71.8	2	1_1	2	1.320709	c14.jpg	154
76.92	2	5_1	2	1.320862	c18.jpg	154
82.77	2	5_2	NA	NA	c18.jpg	154
88.99	2	1_1	NA	NA	c7.jpg	154
93.76	2	5_1	NA	NA	c17.jpg	154
99.61	2	1_1	NA	NA	c24.jpg	154
107.66	2	5_2	2	0.6852193	c17.jpg	154
113.15	2	5_2	2	1.121324	c13.jpg	154
118.66	2	1_1	2	1.743462	c12.jpg	154
126.34	2	5_1	NA	NA	c11.jpg	154
134.03	2	5_2	NA	NA	c11.jpg	154
140.26	2	5_1	2	1.109303	c2.jpg	154
147.92	2	5_3	NA	NA	c18.jpg	154
153.78	2	5_3	NA	NA	c17.jpg	154
161.45	2	5_4	NA	NA	c17.jpg	154
166.21	2	5_2	NA	NA	c21.jpg	154
170.6	2	5_3	NA	NA	c11.jpg	154
175.35	2	5_1	2	1.728019	c6.jpg	154
183.4	2	5_3	2	1.634424	c1.jpg	154
190	2	5_2	NA	NA	c2.jpg	154
194.03	2	5_2	NA	NA	c6.jpg	154
199.52	2	5_4	NA	NA	c11.jpg	154
205.75	2	5_3	NA	NA	c8.jpg	154
211.24	2	1_1	NA	NA	c4.jpg	154
216.73	2	5_1	2	1.040298	c19.jpg	154
223.32	2	5_3	NA	NA	c2.jpg	154
229.17	2	5_5	NA	NA	c11.jpg	154
237.21	2	5_4	NA	NA	c1.jpg	154
242.33	2	5_4	NA	NA	c18.jpg	154
249.64	2	5_3	NA	NA	c21.jpg	154
254.03	2	5_2	NA	NA	c19.jpg	154
262.07	2	5_4	NA	NA	c21.jpg	154
268.64	2	5_3	NA	NA	c19.jpg	154
274.14	2	1_1	2	1.23955	c3.jpg	154
280.73	2	1_1	2	1.219029	c23.jpg	154
288.04	2	5_3	NA	NA	c13.jpg	154
293.16	2	5_3	NA	NA	c16.jpg	154
300.11	2	5_5	NA	NA	c18.jpg	154
307.06	2	5_4	2	1.407011	c19.jpg	154
311.08	2	1_1	2	0.962701	c22.jpg	154
316.94	2	5_3	NA	NA	c6.jpg	154
323.9	2	5_4	NA	NA	c2.jpg	154
328.3	2	5_5	NA	NA	c1.jpg	154
332.34	2	5_3	2	1.969251	c10.jpg	154
339.65	2	5_4	NA	NA	c8.jpg	154
347.33	2	5_4	NA	NA	c13.jpg	154
351.36	2	5_5	NA	NA	c17.jpg	154
358.68	2	5_5	NA	NA	c2.jpg	154
363.81	2	1_1	NA	NA	c9.jpg	154
370.02	2	5_5	NA	NA	c19.jpg	154
374.42	2	5_5	NA	NA	c21.jpg	154
379.19	2	5_4	NA	NA	c6.jpg	154
386.13	2	5_4	NA	NA	c10.jpg	154
394.16	2	5_5	NA	NA	c13.jpg	154
399.29	2	5_4	NA	NA	c16.jpg	154
403.68	2	5_5	NA	NA	c6.jpg	154
407.72	2	1_1	NA	NA	c20.jpg	154
411.75	2	5_5	NA	NA	c10.jpg	154
419.06	2	5_5	NA	NA	c8.jpg	154
426.72	2	5_5	NA	NA	c16.jpg	154
433.31	2	1_1	2	1.89429	c5.jpg	154
3.02	2	1_1	1	0.9032678	c6.jpg	157
9.99	2	5_1	2	1.962907	c3.jpg	157
15.48	2	5_1	1	1.384794	c15.jpg	157
20.6	2	5_1	1	0.9149624	c7.jpg	157
28.63	2	5_1	1	0.7301028	c9.jpg	157
32.65	2	1_1	1	0.9741311	c13.jpg	157
40.33	2	5_2	1	0.9003342	c15.jpg	157
48	2	5_2	2	1.155814	c3.jpg	157
54.95	2	5_1	1	1.142375	c5.jpg	157
59.71	2	5_2	2	0.8482897	c5.jpg	157
65.55	2	5_3	2	0.8051826	c15.jpg	157
71.77	2	5_1	1	1.719078	c22.jpg	157
77.98	2	5_4	2	0.8009822	c15.jpg	157
84.19	2	1_1	1	0.8972141	c19.jpg	157
90.04	2	5_1	1	1.635198	c14.jpg	157
98.08	2	5_2	2	1.277648	c22.jpg	157
105.74	2	5_1	1	1.535167	c4.jpg	157
113.42	2	5_1	1	0.7795999	c20.jpg	157
118.55	2	5_2	2	1.014755	c7.jpg	157
122.95	2	5_2	2	1.282069	c14.jpg	157
128.79	2	5_1	1	1.423198	c23.jpg	157
136.11	2	5_3	2	1.25822	c3.jpg	157
140.87	2	5_2	2	0.9646341	c20.jpg	157
146	2	1_1	2	1.399007	c10.jpg	157
154.03	2	1_1	1	1.102872	c18.jpg	157
160.25	2	5_1	1	1.303074	c24.jpg	157
168.28	2	5_2	2	1.322287	c23.jpg	157
174.86	2	5_3	2	1.076198	c5.jpg	157
182.9	2	5_2	2	1.704352	c24.jpg	157
190.94	2	5_3	2	1.105066	c7.jpg	157
196.78	2	5_3	2	0.9800585	c14.jpg	157
203.38	2	1_1	1	1.809141	c1.jpg	157
208.88	2	5_3	2	0.8358528	c20.jpg	157
212.91	2	5_4	2	0.794593	c14.jpg	157
217.31	2	5_3	2	0.901382	c24.jpg	157
224.98	2	5_4	2	0.7333587	c5.jpg	157
229.74	2	5_4	2	1.651781	c20.jpg	157
236.68	2	5_3	2	0.837702	c22.jpg	157
243.99	2	5_4	2	0.7666623	c22.jpg	157
250.94	2	5_2	2	1.949914	c4.jpg	157
257.15	2	1_1	1	0.9315367	c17.jpg	157
263.73	2	5_1	2	1.85488	c12.jpg	157
267.77	2	5_3	2	0.752839	c23.jpg	157
273.62	2	5_5	2	1.0168	c22.jpg	157
279.1	2	1_1	1	1.269041	c21.jpg	157
283.87	2	1_1	1	1.046076	c2.jpg	157
289	2	5_2	2	0.9534127	c12.jpg	157
293.4	2	5_4	2	0.7326793	c23.jpg	157
298.89	2	1_1	1	1.218232	c8.jpg	157
303.29	2	5_5	2	0.749267	c20.jpg	157
308.42	2	5_2	2	1.772055	c9.jpg	157
314.27	2	5_4	2	0.8794722	c3.jpg	157
318.67	2	5_3	2	0.9144428	c9.jpg	157
326.34	2	5_5	2	0.7296037	c5.jpg	157
332.92	2	5_4	2	1.366787	c7.jpg	157
337.69	2	5_5	2	0.6670293	c3.jpg	157
345	2	5_3	2	1.213978	c12.jpg	157
350.49	2	5_3	2	0.8644651	c4.jpg	157
357.8	2	5_5	2	0.6164601	c7.jpg	157
362.93	2	5_4	2	0.792315	c9.jpg	157
366.96	2	5_5	2	1.043411	c14.jpg	157
372.45	2	5_5	2	1.065931	c9.jpg	157
379.04	2	1_1	1	0.9193764	c16.jpg	157
386.34	2	5_4	2	0.7856988	c12.jpg	157
391.1	2	5_4	2	0.7396737	c4.jpg	157
398.4	2	5_5	2	0.9332618	c23.jpg	157
402.8	2	5_5	2	0.8323462	c12.jpg	157
409.01	2	1_1	1	1.087507	c11.jpg	157
413.04	2	5_5	2	0.975868	c15.jpg	157
417.08	2	5_5	2	0.8317193	c4.jpg	157
423.66	2	5_4	2	1.061526	c24.jpg	157
430.61	2	5_5	2	0.8215956	c24.jpg	157
3	2	5_1	NA	NA	c11.jpg	162
9.6	2	5_1	1	0.5438736	c6.jpg	162
13.6	2	5_1	1	0.6677166	c17.jpg	162
20.9	2	5_1	1	0.5715533	c13.jpg	162
27.9	2	5_1	1	0.5215191	c2.jpg	162
33.7	2	5_1	1	0.5538231	c21.jpg	162
38.5	2	5_2	1	0.6022424	c13.jpg	162
43.9	2	5_1	1	0.6486899	c10.jpg	162
49.4	2	5_1	1	0.5346777	c8.jpg	162
54.5	2	1_1	1	0.8323748	c4.jpg	162
61.1	2	1_1	1	0.6082322	c12.jpg	162
68.1	2	5_1	1	0.5492637	c1.jpg	162
74.3	2	5_2	2	0.7097035	c11.jpg	162
79.1	2	5_2	2	0.8653904	c1.jpg	162
83.1	2	5_2	2	0.7708579	c10.jpg	162
87.8	2	5_2	2	0.7939115	c17.jpg	162
94.4	2	5_2	2	0.7816074	c2.jpg	162
98.5	2	5_2	2	0.8861898	c8.jpg	162
106.5	2	1_1	1	0.8719697	c22.jpg	162
112.7	2	5_1	1	0.9201524	c19.jpg	162
118.9	2	5_2	1	1.330702	c21.jpg	162
123.3	2	5_1	1	1.454119	c18.jpg	162
127.7	2	5_3	2	0.9203562	c13.jpg	162
134.6	2	5_3	2	1.039156	c10.jpg	162
141.6	2	5_1	1	1.287657	c16.jpg	162
149.6	2	5_3	1	0.8435765	c2.jpg	162
155.5	2	5_3	2	1.168547	c11.jpg	162
159.9	2	1_1	1	0.8436791	c15.jpg	162
165	2	5_3	2	1.44337	c1.jpg	162
173	2	1_1	2	1.534413	c5.jpg	162
177.1	2	5_3	2	0.6448029	c17.jpg	162
183.3	2	5_3	2	1.898765	c21.jpg	162
187.3	2	5_2	2	1.937224	c19.jpg	162
195	2	5_4	2	0.6931853	c11.jpg	162
200.5	2	1_1	1	0.7459179	c20.jpg	162
206.3	2	1_1	1	1.204857	c3.jpg	162
213.6	2	5_4	2	0.7116859	c13.jpg	162
220.2	2	5_2	2	0.7887184	c18.jpg	162
227.9	2	5_2	2	0.8064134	c16.jpg	162
233	2	5_3	2	0.5290004	c19.jpg	162
240.3	2	1_1	2	0.938323	c7.jpg	162
245.8	2	5_3	2	0.680864	c16.jpg	162
252	2	1_1	1	1.48818	c14.jpg	162
259.7	2	5_3	2	0.7235527	c8.jpg	162
264.8	2	5_4	2	1.218682	c17.jpg	162
270.6	2	5_5	2	1.232278	c13.jpg	162
278.3	2	5_4	2	0.9649727	c10.jpg	162
285.6	2	5_2	1	1.154489	c6.jpg	162
290	2	5_4	2	1.068872	c16.jpg	162
296.9	2	5_5	2	0.9398262	c16.jpg	162
305	2	5_4	2	1.105799	c21.jpg	162
310.1	2	5_4	2	1.470713	c2.jpg	162
316.7	2	5_4	2	1.023873	c19.jpg	162
324.4	2	1_1	1	0.8998636	c24.jpg	162
332.4	2	1_1	1	1.119008	c9.jpg	162
336.8	2	1_1	1	1.149724	c23.jpg	162
341.5	2	5_5	2	0.9930806	c21.jpg	162
348.8	2	5_3	2	0.7645851	c18.jpg	162
354.7	2	5_4	2	0.636858	c18.jpg	162
362.4	2	5_3	2	1.323567	c6.jpg	162
367.1	2	5_4	2	0.6398949	c6.jpg	162
372.6	2	5_4	2	0.8367022	c8.jpg	162
377.4	2	5_5	2	0.9109556	c18.jpg	162
385.4	2	5_5	2	1.74726	c2.jpg	162
391.6	2	5_5	2	0.7998083	c10.jpg	162
396.8	2	5_5	2	0.8723999	c11.jpg	162
404.1	2	5_4	2	1.271019	c1.jpg	162
408.1	2	5_5	2	0.6637059	c1.jpg	162
415.1	2	5_5	2	0.7400425	c19.jpg	162
420.9	2	5_5	1	0.8100983	c17.jpg	162
427.5	2	5_5	2	0.6735114	c6.jpg	162
431.9	2	5_5	2	1.071714	c8.jpg	162
3.04	2	5_1	1	0.5386602	c7.jpg	163
7.47	2	1_1	1	1.56704	c10.jpg	163
14.84	2	5_1	1	1.074909	c24.jpg	163
18.92	2	5_1	1	0.9683047	c15.jpg	163
26.61	2	5_1	1	0.728169	c22.jpg	163
32.82	2	5_2	2	0.962419	c15.jpg	163
39.78	2	5_1	1	0.9510839	c23.jpg	163
46.38	2	1_1	1	1.009036	c8.jpg	163
51.89	2	5_1	1	0.64537	c20.jpg	163
58.49	2	1_1	1	0.8201031	c2.jpg	163
65.07	2	5_1	1	0.815837	c5.jpg	163
73.11	2	5_2	2	0.7856041	c5.jpg	163
77.16	2	1_1	1	0.9680138	c21.jpg	163
85.21	2	5_1	1	0.8433949	c3.jpg	163
90.32	2	5_2	2	1.126348	c22.jpg	163
95.08	2	5_2	2	1.021141	c7.jpg	163
102.38	2	5_1	1	0.8729003	c4.jpg	163
109.68	2	5_1	1	0.7627425	c14.jpg	163
116.26	2	5_3	2	0.9242037	c7.jpg	163
122.5	2	5_1	1	0.8774781	c12.jpg	163
130.52	2	5_2	2	0.9268552	c14.jpg	163
135.28	2	5_2	2	0.9874245	c4.jpg	163
142.95	2	5_3	2	0.8564569	c4.jpg	163
148.8	2	1_1	1	1.207548	c18.jpg	163
154.65	2	5_3	2	0.9702489	c15.jpg	163
161.96	2	1_1	1	0.9068395	c13.jpg	163
167.11	2	1_1	1	1.11817	c1.jpg	163
174.06	2	5_4	2	0.920515	c15.jpg	163
179.93	2	5_1	1	0.9771325	c9.jpg	163
185.43	2	5_3	2	0.8023953	c22.jpg	163
189.82	2	1_1	1	0.9035581	c6.jpg	163
194.58	2	5_2	2	1.070424	c24.jpg	163
201.16	2	5_3	2	0.7858578	c24.jpg	163
205.19	2	5_2	2	1.029274	c20.jpg	163
210.31	2	1_1	1	1.063914	c17.jpg	163
214.71	2	5_2	2	0.9426813	c12.jpg	163
219.1	2	5_3	2	0.8750363	c12.jpg	163
226.41	2	5_2	2	0.8363365	c9.jpg	163
230.45	2	5_2	2	1.511527	c3.jpg	163
235.57	2	5_3	2	0.7940337	c5.jpg	163
241.79	2	5_3	2	0.9144287	c9.jpg	163
248	2	5_4	2	0.9083075	c12.jpg	163
253.85	2	5_5	2	0.7788932	c15.jpg	163
257.89	2	5_4	2	1.036127	c4.jpg	163
263.01	2	5_4	2	0.7722172	c24.jpg	163
269.6	2	5_3	2	0.7653037	c20.jpg	163
274.38	2	1_1	1	0.7956181	c11.jpg	163
280.61	2	5_3	2	1.086498	c3.jpg	163
286.47	2	5_3	2	1.473374	c14.jpg	163
294.5	2	5_5	2	0.6596416	c24.jpg	163
300.72	2	5_4	2	0.6621896	c20.jpg	163
306.22	2	5_4	2	0.8967883	c3.jpg	163
313.16	2	5_2	2	1.301994	c23.jpg	163
320.09	2	5_5	2	0.7471536	c20.jpg	163
324.49	2	5_4	2	0.8728933	c22.jpg	163
329.26	2	5_4	2	0.73416	c5.jpg	163
337.3	2	5_4	2	0.8878704	c14.jpg	163
342.78	2	5_4	2	0.8399487	c9.jpg	163
350.82	2	5_5	2	0.8113096	c9.jpg	163
358.48	2	5_5	2	0.7096289	c4.jpg	163
362.88	2	5_5	2	0.6680079	c22.jpg	163
370.18	2	5_3	2	1.102722	c23.jpg	163
377.12	2	5_4	2	0.9265004	c23.jpg	163
381.9	2	5_5	2	0.6870195	c3.jpg	163
387.04	2	5_5	2	0.7981368	c14.jpg	163
392.88	2	5_5	2	0.8884886	c5.jpg	163
399.82	2	5_5	2	0.7222748	c23.jpg	163
407.49	2	5_4	2	0.7612939	c7.jpg	163
412.98	2	1_1	1	0.7514227	c16.jpg	163
420.67	2	1_1	1	0.8897536	c19.jpg	163
424.71	2	5_5	2	0.6892414	c12.jpg	163
432.38	2	5_5	2	1.339731	c7.jpg	163
3	2	5_1	NA	NA	c19.jpg	165
7.4	2	5_1	1	9.17E-04	c16.jpg	165
13.3	2	5_1	1	0.6025632	c13.jpg	165
21	2	5_1	1	1.158692	c21.jpg	165
26.1	2	5_1	1	1.384783	c1.jpg	165
30.9	2	5_2	2	0.9612464	c16.jpg	165
36.4	2	5_1	1	1.700124	c8.jpg	165
43.4	2	1_1	2	0.9125192	c7.jpg	165
51.1	2	1_1	2	1.380695	c14.jpg	165
57.7	2	5_2	2	0.7624107	c1.jpg	165
63.9	2	5_1	1	0.9699816	c11.jpg	165
69	2	5_2	2	0.6889385	c8.jpg	165
76.7	2	1_1	1	1.210017	c20.jpg	165
81.5	2	5_1	1	1.335698	c10.jpg	165
89.5	2	5_1	1	1.568585	c17.jpg	165
96.5	2	5_3	2	0.7269273	c8.jpg	165
100.5	2	5_1	1	1.539978	c2.jpg	165
106.8	2	5_3	2	0.7388666	c16.jpg	165
114.1	2	5_1	1	1.070449	c6.jpg	165
119.6	2	5_2	2	0.9753222	c13.jpg	165
126.2	2	5_4	2	0.8918254	c16.jpg	165
130.9	2	5_2	2	1.024046	c21.jpg	165
136.4	2	5_2	1	0.8624709	c6.jpg	165
143	2	5_2	2	1.029002	c10.jpg	165
148.8	2	5_3	2	0.8219194	c1.jpg	165
155.1	2	5_2	2	0.8350609	c2.jpg	165
160.6	2	5_3	2	0.6966476	c6.jpg	165
165	2	5_2	2	0.7149113	c17.jpg	165
171.2	2	1_1	1	1.238747	c24.jpg	165
178.5	2	5_3	2	0.7342072	c17.jpg	165
186.5	2	5_4	2	0.5961787	c17.jpg	165
194.6	2	1_1	1	0.880219	c15.jpg	165
200.8	2	5_2	2	0.8108669	c11.jpg	165
206.6	2	1_1	1	0.9555709	c9.jpg	165
212.1	2	1_1	1	1.706186	c3.jpg	165
216.2	2	5_2	2	1.882341	c19.jpg	165
220.9	2	5_3	2	0.7572437	c13.jpg	165
227.5	2	5_3	2	0.7011586	c10.jpg	165
233.4	2	5_4	2	0.64491	c8.jpg	165
239.2	2	1_1	1	1.610266	c22.jpg	165
246.2	2	1_1	1	0.9714862	c23.jpg	165
254.3	2	5_3	2	0.9437548	c19.jpg	165
262.3	2	5_3	2	0.73642	c2.jpg	165
269.6	2	5_4	2	0.5559471	c19.jpg	165
276.9	2	5_4	2	0.6530487	c13.jpg	165
280.9	2	5_4	2	0.6181915	c1.jpg	165
286.1	2	5_5	2	0.9150543	c19.jpg	165
292.6	2	5_5	2	0.6215333	c17.jpg	165
299.6	2	5_3	2	0.6920255	c21.jpg	165
306.2	2	5_5	2	0.6647492	c1.jpg	165
311	2	5_3	2	0.7154394	c11.jpg	165
318.3	2	5_4	2	0.6292891	c11.jpg	165
322.7	2	1_1	1	1.041139	c12.jpg	165
328.5	2	1_1	1	0.9411426	c4.jpg	165
332.9	2	5_5	2	1.284882	c11.jpg	165
338.4	2	5_5	2	0.6245792	c13.jpg	165
346.1	2	5_1	1	0.7899644	c18.jpg	165
353.8	2	5_4	2	0.728634	c10.jpg	165
357.8	2	5_5	2	0.6736076	c16.jpg	165
361.8	2	5_2	2	0.9257921	c18.jpg	165
366.2	2	5_4	2	0.6109319	c2.jpg	165
373.2	2	5_4	2	0.6141147	c21.jpg	165
378.3	2	5_3	2	0.7111149	c18.jpg	165
382.7	2	5_4	2	0.7103188	c6.jpg	165
390	2	5_4	2	0.5599302	c18.jpg	165
394.8	2	5_5	2	0.6958418	c10.jpg	165
402.8	2	5_5	2	0.6208134	c21.jpg	165
407.9	2	5_5	2	0.7601747	c18.jpg	165
414.2	2	1_1	1	0.725896	c5.jpg	165
419.3	2	5_5	2	0.6516021	c6.jpg	165
427	2	5_5	2	0.6102958	c2.jpg	165
433.9	2	5_5	2	0.5318062	c8.jpg	165
3	2	1_1	1	1.59979	c9.jpg	166
7.5	2	1_1	1	0.7867988	c7.jpg	166
13.7	2	5_1	1	0.643587	c18.jpg	166
20.3	2	5_1	1	1.464913	c1.jpg	166
24.7	2	5_1	1	0.8104616	c6.jpg	166
29.5	2	5_1	1	0.9874649	c13.jpg	166
35	2	5_2	2	1.034802	c18.jpg	166
42.3	2	5_2	2	1.161459	c6.jpg	166
48.2	2	5_1	1	1.157977	c8.jpg	166
54.7	2	5_1	1	1.323331	c11.jpg	166
59.9	2	5_1	1	1.133017	c17.jpg	166
67.9	2	1_1	1	1.428581	c23.jpg	166
72.7	2	5_1	1	0.9020333	c19.jpg	166
78.2	2	5_3	2	1.004246	c6.jpg	166
84.4	2	5_2	2	1.176801	c19.jpg	166
91	2	5_2	2	1.475526	c1.jpg	166
97.2	2	1_1	1	1.504489	c5.jpg	166
105.2	2	5_3	2	1.186719	c1.jpg	166
112.2	2	1_1	1	1.065061	c15.jpg	166
118.8	2	5_1	1	1.651009	c10.jpg	166
126.8	2	5_3	2	1.018242	c19.jpg	166
130.9	2	5_2	2	1.429699	c10.jpg	166
136.7	2	5_1	NA	NA	c21.jpg	166
144.4	2	5_2	2	1.166661	c11.jpg	166
149.2	2	1_1	1	1.352711	c20.jpg	166
154.7	2	5_2	2	1.128341	c21.jpg	166
162	2	5_3	2	1.640384	c10.jpg	166
168.9	2	5_2	2	0.8434362	c8.jpg	166
176.2	2	5_4	2	0.9012186	c19.jpg	166
180.6	2	5_5	2	0.9472047	c19.jpg	166
186.5	2	5_4	2	0.8574222	c10.jpg	166
194.1	2	5_2	2	1.720636	c13.jpg	166
198.9	2	1_1	1	1.029893	c12.jpg	166
202.9	2	5_1	1	1.020814	c16.jpg	166
208.1	2	1_1	1	1.119992	c14.jpg	166
215.4	2	5_4	2	0.778836	c6.jpg	166
223.4	2	5_2	2	1.367043	c16.jpg	166
230.8	2	1_1	1	1.306889	c24.jpg	166
236.6	2	5_5	2	0.7420921	c10.jpg	166
243.5	2	1_1	1	1.600718	c4.jpg	166
251.2	2	5_3	2	0.8667178	c11.jpg	166
257.4	2	5_3	2	1.059183	c13.jpg	166
264.4	2	5_4	2	1.331017	c1.jpg	166
268.4	2	5_3	2	0.9861691	c21.jpg	166
275.3	2	5_4	2	0.7798205	c13.jpg	166
281.9	2	1_1	1	1.193861	c22.jpg	166
287.1	2	5_4	2	0.8955514	c11.jpg	166
291.5	2	5_4	2	0.8252526	c21.jpg	166
295.9	2	5_5	2	0.9006055	c13.jpg	166
299.9	2	1_1	1	1.772765	c3.jpg	166
306.9	2	5_3	2	0.9754794	c8.jpg	166
314.5	2	5_3	2	0.956939	c16.jpg	166
319.3	2	5_2	2	1.649323	c17.jpg	166
323.3	2	5_3	2	0.8392794	c17.jpg	166
329.2	2	5_4	2	0.8809956	c8.jpg	166
334.7	2	5_5	2	0.711234	c8.jpg	166
339.8	2	5_5	2	0.7703648	c21.jpg	166
346	2	5_3	2	1.19087	c18.jpg	166
352.6	2	5_1	1	1.573844	c2.jpg	166
360.3	2	5_4	2	0.8258743	c16.jpg	166
365.4	2	5_4	2	0.9594263	c17.jpg	166
370.9	2	5_2	2	0.9821748	c2.jpg	166
377.1	2	5_4	2	0.9750425	c18.jpg	166
382.6	2	5_3	2	0.7290935	c2.jpg	166
390.7	2	5_5	2	0.8476222	c6.jpg	166
398.3	2	5_4	2	0.7790096	c2.jpg	166
404.2	2	5_5	2	0.8890141	c2.jpg	166
409.3	2	5_5	2	0.8206534	c11.jpg	166
417.4	2	5_5	2	1.036786	c16.jpg	166
421.8	2	5_5	2	1.758479	c1.jpg	166
425.8	2	5_5	2	0.7260203	c18.jpg	166
433.1	2	5_5	2	0.773016	c17.jpg	166
3	2	5_1	NA	NA	c8.jpg	173
9.6	2	5_1	2	0.5018392	c11.jpg	173
16.6	2	5_1	2	1.054807	c10.jpg	173
21	2	5_1	2	0.5664377	c18.jpg	173
28.3	2	5_2	2	0.5855443	c8.jpg	173
33.8	2	5_1	2	0.9197496	c16.jpg	173
38.6	2	5_1	2	0.7615015	c17.jpg	173
43.7	2	5_1	2	0.8688251	c21.jpg	173
51.4	2	5_1	2	0.6940072	c2.jpg	173
58	2	5_1	2	0.7360056	c19.jpg	173
64.9	2	5_2	2	0.7593714	c2.jpg	173
68.9	2	5_2	2	0.860567	c10.jpg	173
73	2	5_2	NA	NA	c16.jpg	173
78.5	2	5_1	2	0.6897827	c13.jpg	173
82.9	2	5_2	NA	NA	c11.jpg	173
87.6	2	1_1	2	1.054089	c5.jpg	173
93.1	2	1_1	2	0.9517352	c9.jpg	173
98.3	2	5_3	NA	NA	c10.jpg	173
104.8	2	5_1	2	1.116719	c1.jpg	173
109.6	2	5_1	2	1.203368	c6.jpg	173
114.8	2	5_2	2	1.246529	c1.jpg	173
120.2	2	5_2	NA	NA	c21.jpg	173
126.5	2	5_2	NA	NA	c19.jpg	173
132.3	2	5_3	NA	NA	c2.jpg	173
139.3	2	5_3	NA	NA	c19.jpg	173
145.1	2	1_1	NA	NA	c7.jpg	173
151.7	2	1_1	NA	NA	c12.jpg	173
157.9	2	1_1	NA	NA	c22.jpg	173
165.6	2	5_3	NA	NA	c8.jpg	173
172.9	2	5_4	NA	NA	c19.jpg	173
178	2	5_2	NA	NA	c18.jpg	173
185.3	2	1_1	2	1.315817	c15.jpg	173
192.6	2	5_3	NA	NA	c21.jpg	173
197.1	2	5_3	NA	NA	c1.jpg	173
204.4	2	5_4	NA	NA	c21.jpg	173
212	2	5_4	NA	NA	c10.jpg	173
216.4	2	5_3	NA	NA	c16.jpg	173
223	2	5_5	NA	NA	c19.jpg	173
228.5	2	5_3	NA	NA	c18.jpg	173
236.2	2	5_2	NA	NA	c6.jpg	173
240.2	2	5_3	NA	NA	c6.jpg	173
244.6	2	5_2	NA	NA	c17.jpg	173
251.5	2	5_4	NA	NA	c18.jpg	173
256.3	2	5_3	NA	NA	c17.jpg	173
261.4	2	1_1	NA	NA	c20.jpg	173
266.2	2	5_4	NA	NA	c1.jpg	173
272.4	2	5_4	NA	NA	c16.jpg	173
280.5	2	5_2	NA	NA	c13.jpg	173
285.9	2	5_4	NA	NA	c8.jpg	173
293.2	2	1_1	NA	NA	c4.jpg	173
300.2	2	5_3	NA	NA	c13.jpg	173
307.9	2	5_5	NA	NA	c16.jpg	173
312.6	2	5_3	NA	NA	c11.jpg	173
316.7	2	5_4	NA	NA	c11.jpg	173
324.7	2	1_1	NA	NA	c3.jpg	173
328.8	2	1_1	NA	NA	c14.jpg	173
336.8	2	5_5	NA	NA	c21.jpg	173
343	2	5_4	NA	NA	c17.jpg	173
348.1	2	5_5	NA	NA	c17.jpg	173
354.4	2	5_4	NA	NA	c13.jpg	173
360.9	2	5_4	NA	NA	c6.jpg	173
366.8	2	5_5	NA	NA	c18.jpg	173
374.5	2	5_5	NA	NA	c6.jpg	173
382.5	2	5_5	NA	NA	c1.jpg	173
388.7	2	5_5	NA	NA	c10.jpg	173
392.8	2	1_1	NA	NA	c23.jpg	173
397.2	2	5_4	2	1.320476	c2.jpg	173
404.1	2	5_5	NA	NA	c13.jpg	173
410	2	5_5	NA	NA	c2.jpg	173
418	2	5_5	NA	NA	c11.jpg	173
426.1	2	5_5	NA	NA	c8.jpg	173
431.9	2	1_1	NA	NA	c24.jpg	173
3.03	2	5_1	1	1.24966	c9.jpg	175
10.71	2	5_1	1	0.9615823	c20.jpg	175
17.66	2	5_1	1	0.868925	c4.jpg	175
22.79	2	5_1	1	0.7737204	c7.jpg	175
27.19	2	5_2	2	1.089805	c7.jpg	175
32.68	2	5_1	1	0.8404099	c23.jpg	175
36.71	2	5_1	1	0.825725	c5.jpg	175
44.75	2	5_1	1	0.7470747	c12.jpg	175
51.69	2	5_1	1	0.8766207	c14.jpg	175
57.54	2	5_1	1	0.7480221	c24.jpg	175
61.93	2	5_1	1	0.94446	c15.jpg	175
67.43	2	1_1	1	0.8984343	c11.jpg	175
74.02	2	5_2	2	1.328363	c9.jpg	175
78.78	2	5_2	2	1.080678	c14.jpg	175
83.9	2	5_2	2	1.019327	c24.jpg	175
89.39	2	5_2	2	0.9504674	c20.jpg	175
94.52	2	5_2	2	0.9711283	c12.jpg	175
98.57	2	5_1	NA	NA	c3.jpg	175
105.14	2	5_2	2	1.055208	c15.jpg	175
113.18	2	5_2	2	0.8703112	c3.jpg	175
119.77	2	5_3	2	0.9049153	c15.jpg	175
127.07	2	1_1	1	0.8426567	c10.jpg	175
132.56	2	5_2	2	1.201217	c5.jpg	175
140.25	2	5_3	2	0.9264497	c3.jpg	175
145.01	2	5_3	2	0.9001641	c20.jpg	175
150.14	2	1_1	1	1.709608	c16.jpg	175
156.35	2	5_3	2	1.272328	c14.jpg	175
160.38	2	5_1	1	1.355283	c22.jpg	175
164.79	2	5_4	2	0.8547865	c3.jpg	175
171.74	2	5_2	1	1.115699	c23.jpg	175
178	2	1_1	1	1.844353	c1.jpg	175
185.66	2	5_2	2	1.131115	c22.jpg	175
191.51	2	5_2	2	0.9712658	c4.jpg	175
195.55	2	1_1	1	1.083765	c17.jpg	175
200.68	2	5_3	2	1.35149	c7.jpg	175
206.88	2	5_3	2	1.020388	c9.jpg	175
214.19	2	5_4	2	0.74934	c9.jpg	175
220.04	2	5_4	2	0.7764584	c20.jpg	175
227.71	2	1_1	1	1.292663	c13.jpg	175
232.11	2	5_3	2	1.561798	c24.jpg	175
239.42	2	1_1	1	0.8574404	c6.jpg	175
244.19	2	5_4	2	0.8933321	c24.jpg	175
250.78	2	5_5	2	1.31737	c20.jpg	175
256.99	2	5_3	2	1.027355	c22.jpg	175
262.84	2	1_1	1	1.202892	c19.jpg	175
269.78	2	1_1	2	1.238843	c21.jpg	175
275.64	2	5_3	2	1.205406	c5.jpg	175
282.57	2	5_4	2	1.080946	c15.jpg	175
289.15	2	1_1	1	1.246897	c18.jpg	175
297.19	2	5_4	2	0.8642252	c5.jpg	175
301.96	2	5_3	2	1.506548	c23.jpg	175
310	2	5_4	2	1.119673	c7.jpg	175
315.86	2	1_1	1	0.9498032	c2.jpg	175
319.89	2	5_3	2	1.164815	c4.jpg	175
326.84	2	5_5	2	0.8746978	c24.jpg	175
332.33	2	5_5	2	1.059043	c9.jpg	175
337.09	2	5_4	2	1.138318	c23.jpg	175
345.12	2	5_3	2	1.005983	c12.jpg	175
350.61	2	5_5	2	1.096183	c7.jpg	175
357.92	2	5_5	2	1.675616	c5.jpg	175
364.49	2	5_5	2	0.9694723	c15.jpg	175
368.9	2	5_4	2	1.504759	c4.jpg	175
374.02	2	5_5	2	0.827335	c4.jpg	175
378.41	2	5_4	2	1.926871	c14.jpg	175
385.73	2	5_5	2	1.144894	c3.jpg	175
390.48	2	1_1	1	1.105006	c8.jpg	175
397.79	2	5_4	2	1.005939	c22.jpg	175
405.47	2	5_4	2	1.056094	c12.jpg	175
411.69	2	5_5	2	1.089259	c23.jpg	175
419.35	2	5_5	2	0.9760032	c14.jpg	175
425.56	2	5_5	2	1.057402	c12.jpg	175
433.59	2	5_5	2	0.8757324	c22.jpg	175
3.028	2	1_1	1	1.767349	c13.jpg	182
11.069	2	5_1	1	0.6312328	c5.jpg	182
16.929	2	5_1	1	0.7027478	c12.jpg	182
20.962	2	5_1	1	0.6867467	c7.jpg	182
26.452	2	1_1	1	0.943494	c8.jpg	182
33.032	2	1_1	1	0.4868615	c18.jpg	182
39.977	2	5_2	2	0.6639025	c12.jpg	182
46.917	2	5_1	1	1.059548	c20.jpg	182
54.218	2	5_2	2	0.7981659	c20.jpg	182
58.619	2	5_3	2	1.234297	c12.jpg	182
65.922	2	5_1	1	0.8080972	c9.jpg	182
71.414	2	5_2	1	0.8788897	c5.jpg	182
75.446	2	5_1	1	0.9124409	c23.jpg	182
80.96	2	5_3	2	0.7802162	c5.jpg	182
86.813	2	1_1	1	1.019777	c16.jpg	182
91.568	2	5_2	2	1.638279	c23.jpg	182
99.599	2	5_1	1	0.7263911	c14.jpg	182
103.996	2	5_2	2	0.9629881	c14.jpg	182
109.86	2	5_1	1	1.917799	c24.jpg	182
117.532	2	1_1	1	0.7761222	c19.jpg	182
121.936	2	1_1	1	0.5691715	c17.jpg	182
125.965	2	5_2	1	0.442559	c24.jpg	182
130.724	2	5_1	1	0.5984616	c22.jpg	182
138.763	2	5_2	1	0.6905546	c7.jpg	182
145.348	2	5_2	2	0.967549	c9.jpg	182
153.026	2	5_3	2	1.310475	c23.jpg	182
158.525	2	5_2	2	1.110502	c22.jpg	182
162.925	2	5_3	2	0.7273353	c7.jpg	182
167.685	2	5_1	2	0.5502635	c15.jpg	182
173.175	2	5_4	2	0.7987245	c23.jpg	182
180.129	2	5_1	1	0.688518	c3.jpg	182
187.442	2	5_3	2	0.9434356	c22.jpg	182
193.656	2	5_2	2	1.355789	c15.jpg	182
197.71	2	5_2	2	1.617436	c3.jpg	182
204.297	2	5_3	2	1.060933	c14.jpg	182
211.258	2	5_1	1	0.9689988	c4.jpg	182
217.47	2	5_3	2	0.9600008	c24.jpg	182
222.237	2	5_4	2	0.8092327	c5.jpg	182
230.272	2	5_3	2	0.6824656	c15.jpg	182
236.504	2	1_1	1	1.105599	c1.jpg	182
241.994	2	5_3	2	0.8678216	c9.jpg	182
246.39	2	5_4	2	0.5656411	c9.jpg	182
254.429	2	5_4	2	0.7886098	c15.jpg	182
261.026	2	5_3	2	0.8299465	c3.jpg	182
268.332	2	5_4	2	1.431109	c7.jpg	182
273.46	2	5_4	2	0.5484196	c3.jpg	182
277.859	2	5_3	2	0.536278	c20.jpg	182
282.99	2	1_1	2	0.39634	c10.jpg	182
288.834	2	5_5	2	0.577393	c9.jpg	182
295.043	2	5_4	2	0.6452731	c20.jpg	182
299.805	2	5_5	2	0.5923931	c20.jpg	182
306.749	2	5_4	2	0.8648625	c14.jpg	182
313.334	2	5_4	2	0.7621006	c12.jpg	182
317.361	2	5_5	2	0.562104	c15.jpg	182
323.221	2	5_5	2	0.5909747	c3.jpg	182
327.982	2	1_1	2	0.7606224	c21.jpg	182
335.293	2	5_2	2	1.117236	c4.jpg	182
341.139	2	5_3	2	0.6095017	c4.jpg	182
346.293	2	1_1	NA	NA	c2.jpg	182
352.515	2	5_4	2	0.8124707	c22.jpg	182
356.543	2	5_5	2	0.7600567	c5.jpg	182
364.207	2	5_4	2	0.6654315	c24.jpg	182
369.322	2	5_4	2	0.7828572	c4.jpg	182
376.271	2	5_5	2	1.939123	c14.jpg	182
383.94	2	5_5	2	0.5629901	c12.jpg	182
390.524	2	5_5	2	0.5993577	c24.jpg	182
398.193	2	5_5	2	1.140527	c23.jpg	182
405.509	2	1_1	1	0.5737678	c6.jpg	182
413.186	2	5_5	2	0.7574556	c4.jpg	182
421.225	2	5_5	2	0.7072638	c22.jpg	182
427.455	2	1_1	1	1.399468	c11.jpg	182
432.575	2	5_5	2	1.202485	c7.jpg	182
3.1	2	5_1	2	1.610357	c22.jpg	184
9.3	2	5_1	2	0.8695652	c23.jpg	184
13.7	2	5_1	2	1.174959	c14.jpg	184
20.3	2	1_1	2	0.7664843	c6.jpg	184
27.6	2	5_1	2	0.9889341	c7.jpg	184
33.1	2	5_2	NA	NA	c22.jpg	184
40.4	2	5_1	2	1.336804	c9.jpg	184
47	2	5_3	NA	NA	c22.jpg	184
54.3	2	5_1	2	1.355887	c24.jpg	184
61.9	2	5_1	2	1.659828	c15.jpg	184
66	2	5_2	2	1.178657	c14.jpg	184
74	2	5_2	NA	NA	c7.jpg	184
79.1	2	5_1	2	1.208766	c4.jpg	184
83.9	2	1_1	2	1.047848	c8.jpg	184
87.9	2	5_3	2	0.5058045	c14.jpg	184
95.2	2	5_2	NA	NA	c24.jpg	184
100	2	5_1	2	1.83327	c20.jpg	184
105.5	2	5_2	2	5.57E-04	c20.jpg	184
111.3	2	5_2	2	1.465357	c15.jpg	184
117.5	2	5_1	2	1.649084	c12.jpg	184
121.9	2	5_2	NA	NA	c9.jpg	184
128.9	2	5_1	2	1.122929	c3.jpg	184
133.3	2	5_2	NA	NA	c4.jpg	184
140.2	2	5_1	2	1.914096	c5.jpg	184
148.3	2	5_3	NA	NA	c15.jpg	184
155.6	2	5_3	NA	NA	c24.jpg	184
161	2	1_1	NA	NA	c16.jpg	184
166.9	2	5_3	NA	NA	c4.jpg	184
172.4	2	5_4	NA	NA	c22.jpg	184
178.2	2	5_4	NA	NA	c4.jpg	184
184.8	2	1_1	2	1.031343	c2.jpg	184
191.4	2	5_3	NA	NA	c20.jpg	184
199.1	2	5_4	NA	NA	c15.jpg	184
205.6	2	5_2	NA	NA	c5.jpg	184
213.3	2	5_4	NA	NA	c24.jpg	184
218.4	2	5_2	NA	NA	c23.jpg	184
222.5	2	5_4	NA	NA	c14.jpg	184
227.6	2	5_3	NA	NA	c23.jpg	184
233.1	2	1_1	NA	NA	c19.jpg	184
241.1	2	5_5	NA	NA	c22.jpg	184
245.1	2	5_2	2	1.437444	c12.jpg	184
251.4	2	5_4	NA	NA	c23.jpg	184
257.2	2	5_5	NA	NA	c4.jpg	184
264.9	2	5_3	NA	NA	c12.jpg	184
270	2	5_3	NA	NA	c5.jpg	184
274	2	5_3	NA	NA	c7.jpg	184
280.3	2	5_4	NA	NA	c12.jpg	184
287.2	2	5_3	NA	NA	c9.jpg	184
291.2	2	5_2	2	1.69211	c3.jpg	184
298.2	2	1_1	2	1.698509	c11.jpg	184
303.3	2	1_1	2	1.251935	c18.jpg	184
311	2	1_1	2	1.411821	c10.jpg	184
315.7	2	5_3	NA	NA	c3.jpg	184
320.5	2	5_4	NA	NA	c5.jpg	184
328.2	2	5_4	NA	NA	c3.jpg	184
334.8	2	5_5	NA	NA	c12.jpg	184
339.2	2	5_4	NA	NA	c9.jpg	184
347.2	2	5_5	NA	NA	c15.jpg	184
354.5	2	1_1	NA	NA	c17.jpg	184
358.9	2	5_4	NA	NA	c7.jpg	184
365.9	2	5_4	NA	NA	c20.jpg	184
370.3	2	5_5	NA	NA	c24.jpg	184
375	2	5_5	NA	NA	c5.jpg	184
380.9	2	5_5	NA	NA	c20.jpg	184
388.9	2	5_5	NA	NA	c3.jpg	184
397	2	5_5	NA	NA	c23.jpg	184
402.8	2	5_5	NA	NA	c14.jpg	184
409.1	2	5_5	NA	NA	c7.jpg	184
414.2	2	5_5	NA	NA	c9.jpg	184
419	2	1_1	NA	NA	c13.jpg	184
424.5	2	1_1	NA	NA	c1.jpg	184
430.7	2	1_1	NA	NA	c21.jpg	184
3.02	2	5_1	NA	NA	c6.jpg	186
7.8	2	5_1	1	1.752305	c13.jpg	186
13.3	2	5_1	1	1.142298	c16.jpg	186
20.23	2	5_2	2	0.9045784	c13.jpg	186
26.45	2	5_1	1	1.305128	c21.jpg	186
30.48	2	1_1	1	0.9760673	c5.jpg	186
34.88	2	5_1	1	1.067811	c18.jpg	186
38.93	2	5_1	1	1.331967	c2.jpg	186
46.59	2	5_2	2	0.9989701	c16.jpg	186
50.62	2	5_1	1	1.401901	c8.jpg	186
57.21	2	5_1	1	1.058167	c1.jpg	186
62.69	2	5_1	1	1.8272	c19.jpg	186
68.91	2	5_1	1	1.293214	c17.jpg	186
74.76	2	5_2	2	1.121151	c19.jpg	186
79.54	2	5_2	NA	NA	c8.jpg	186
83.94	2	1_1	2	0.7890958	c9.jpg	186
89.07	2	5_3	2	1.679674	c13.jpg	186
93.83	2	5_2	2	1.548883	c21.jpg	186
99.68	2	5_3	2	0.8476637	c21.jpg	186
107.36	2	5_2	2	1.406606	c17.jpg	186
114.3	2	5_3	2	0.8657687	c17.jpg	186
120.15	2	5_3	2	0.9687772	c16.jpg	186
126.38	2	5_1	2	1.943068	c11.jpg	186
133.32	2	5_1	NA	NA	c10.jpg	186
138.11	2	5_2	2	1.02033	c1.jpg	186
145.41	2	5_4	NA	NA	c21.jpg	186
149.81	2	5_2	NA	NA	c18.jpg	186
154.2	2	1_1	1	1.275864	c24.jpg	186
161.5	2	5_2	1	1.394664	c6.jpg	186
168.44	2	5_2	2	1.146519	c10.jpg	186
175.01	2	5_3	2	0.9687268	c6.jpg	186
181.23	2	1_1	1	1.269092	c15.jpg	186
185.26	2	5_3	2	1.287941	c19.jpg	186
193.3	2	1_1	1	1.444225	c3.jpg	186
198.06	2	5_4	2	1.972561	c17.jpg	186
202.47	2	5_2	NA	NA	c2.jpg	186
209.42	2	5_3	2	0.7752378	c18.jpg	186
214.55	2	5_3	2	0.79044	c8.jpg	186
219.68	2	5_4	2	0.880626	c13.jpg	186
226.27	2	5_3	2	1.238997	c1.jpg	186
233.58	2	5_4	NA	NA	c16.jpg	186
241.61	2	5_5	NA	NA	c13.jpg	186
247.1	2	5_2	NA	NA	c11.jpg	186
254.4	2	5_4	2	0.8280916	c18.jpg	186
262.06	2	5_5	2	1.058128	c21.jpg	186
267.92	2	5_3	NA	NA	c10.jpg	186
274.5	2	5_3	2	0.5900727	c11.jpg	186
282.54	2	1_1	2	0.4252512	c20.jpg	186
290.22	2	5_3	2	1.305799	c2.jpg	186
295.35	2	5_4	2	1.801763	c8.jpg	186
301.2	2	5_4	2	1.257653	c19.jpg	186
305.61	2	5_4	NA	NA	c11.jpg	186
309.66	2	5_4	2	0.5854177	c1.jpg	186
317.69	2	5_5	2	0.434835	c19.jpg	186
325.36	2	1_1	2	0.5652896	c4.jpg	186
331.93	2	5_5	2	0.8268221	c18.jpg	186
337.06	2	5_4	2	0.6766767	c6.jpg	186
342.18	2	5_5	2	0.4726998	c6.jpg	186
348.39	2	1_1	1	1.474582	c14.jpg	186
356.42	2	5_5	2	1.120297	c17.jpg	186
363.01	2	5_5	2	0.7319087	c1.jpg	186
370.68	2	5_5	2	0.7692474	c16.jpg	186
376.17	2	1_1	1	1.582259	c12.jpg	186
381.66	2	1_1	NA	NA	c22.jpg	186
387.87	2	5_4	2	0.7929616	c10.jpg	186
395.17	2	5_5	2	0.8843418	c8.jpg	186
399.21	2	5_5	2	1.829933	c11.jpg	186
406.52	2	5_4	2	0.5588874	c2.jpg	186
414.55	2	5_5	2	0.7612354	c10.jpg	186
419.32	2	5_5	2	1.149553	c2.jpg	186
424.81	2	1_1	2	0.9092791	c7.jpg	186
431.75	2	1_1	1	1.515188	c23.jpg	186
3.02	2	1_1	1	1.871111	c18.jpg	188
9.98	2	5_1	1	1.083999	c12.jpg	188
16.19	2	5_1	1	1.011515	c20.jpg	188
24.22	2	5_2	2	1.221056	c20.jpg	188
29.71	2	5_1	1	1.425499	c15.jpg	188
35.2	2	1_1	NA	NA	c10.jpg	188
42.5	2	5_1	1	1.331506	c4.jpg	188
46.53	2	5_1	1	1.437338	c5.jpg	188
53.84	2	5_2	2	1.212831	c12.jpg	188
58.61	2	5_1	1	1.128605	c3.jpg	188
63.37	2	5_2	2	1.025125	c15.jpg	188
70.33	2	5_1	1	1.006748	c23.jpg	188
76.18	2	5_1	1	1.392656	c9.jpg	188
82.76	2	5_3	2	0.917394	c20.jpg	188
89.33	2	5_1	1	0.7614994	c14.jpg	188
97	2	5_2	2	0.8691207	c4.jpg	188
103.95	2	5_1	1	1.500506	c22.jpg	188
110.52	2	5_2	2	1.21602	c9.jpg	188
116.37	2	5_2	2	1.31185	c22.jpg	188
122.59	2	5_2	2	0.9718113	c23.jpg	188
127.34	2	5_3	2	0.8808839	c4.jpg	188
132.83	2	5_3	2	0.9039839	c9.jpg	188
138.69	2	5_2	2	0.9406532	c5.jpg	188
143.82	2	5_3	2	0.9961764	c12.jpg	188
150.41	2	5_2	2	1.743077	c3.jpg	188
158.46	2	5_3	2	0.8873754	c3.jpg	188
166.13	2	5_2	2	1.077597	c14.jpg	188
174.17	2	5_3	2	0.9061697	c22.jpg	188
178.57	2	5_4	2	0.9380043	c20.jpg	188
185.89	2	5_4	2	0.9195822	c3.jpg	188
191.74	2	1_1	1	1.451293	c13.jpg	188
197.23	2	5_1	1	1.548397	c7.jpg	188
201.63	2	5_2	2	1.431033	c7.jpg	188
207.11	2	5_3	2	1.03368	c5.jpg	188
215.14	2	5_3	2	1.323921	c15.jpg	188
219.55	2	1_1	2	2.51E-04	c2.jpg	188
224.32	2	5_4	2	0.9107628	c5.jpg	188
232.37	2	1_1	1	1.19681	c1.jpg	188
240.42	2	5_3	1	3.43E-04	c23.jpg	188
246.64	2	5_4	NA	NA	c9.jpg	188
250.68	2	5_4	2	0.8332012	c23.jpg	188
255.81	2	5_3	2	0.8879904	c14.jpg	188
261.66	2	5_5	1	1.168194	c3.jpg	188
268.61	2	5_3	2	1.080493	c7.jpg	188
273.37	2	5_4	2	0.6471101	c7.jpg	188
278.86	2	5_1	1	1.611975	c24.jpg	188
283.27	2	5_4	2	0.830474	c22.jpg	188
289.48	2	1_1	1	1.250415	c21.jpg	188
294.61	2	5_4	2	0.8323082	c14.jpg	188
300.83	2	5_4	2	1.304077	c12.jpg	188
305.95	2	5_5	2	0.005023275	c23.jpg	188
313.62	2	5_5	2	0.6954306	c7.jpg	188
318.74	2	5_2	2	1.18477	c24.jpg	188
323.13	2	5_5	2	0.8740431	c14.jpg	188
330.81	2	1_1	1	1.094883	c17.jpg	188
335.21	2	5_3	2	0.7913649	c24.jpg	188
339.25	2	5_4	2	0.7991423	c24.jpg	188
346.55	2	1_1	1	1.075673	c19.jpg	188
354.22	2	5_4	2	1.255125	c15.jpg	188
361.53	2	5_4	2	0.9255608	c4.jpg	188
365.55	2	1_1	1	1.225564	c11.jpg	188
371.41	2	1_1	1	0.9567585	c16.jpg	188
377.62	2	5_5	2	0.7657186	c15.jpg	188
385.3	2	5_5	2	0.7486764	c24.jpg	188
392.6	2	5_5	2	0.9250928	c22.jpg	188
399.55	2	1_1	1	1.785971	c6.jpg	188
403.58	2	5_5	2	0.7987705	c20.jpg	188
410.17	2	5_5	2	0.7308683	c5.jpg	188
415.29	2	1_1	1	1.270952	c8.jpg	188
421.87	2	5_5	2	0.9657065	c12.jpg	188
425.9	2	5_5	2	0.8141327	c4.jpg	188
432.85	2	5_5	2	1.008989	c9.jpg	188
3.03	2	5_1	1	0.8366397	c14.jpg	191
9.63	2	5_1	1	0.7750722	c5.jpg	191
15.12	2	5_1	1	0.6316863	c24.jpg	191
22.06	2	1_1	1	0.7469927	c11.jpg	191
26.1	2	5_1	1	0.9876716	c23.jpg	191
33.77	2	5_2	2	0.7412207	c24.jpg	191
39.63	2	5_1	1	0.9327795	c15.jpg	191
43.66	2	5_1	1	0.9920322	c20.jpg	191
47.71	2	5_1	1	1.0437	c3.jpg	191
52.47	2	5_2	2	0.9447748	c14.jpg	191
56.86	2	5_2	2	0.933191	c5.jpg	191
61.99	2	5_1	1	1.176472	c12.jpg	191
69.3	2	5_1	1	1.061077	c4.jpg	191
74.06	2	5_3	2	1.321173	c24.jpg	191
79.19	2	5_2	2	0.9666987	c23.jpg	191
83.95	2	5_2	2	1.135873	c12.jpg	191
88.35	2	5_1	1	1.021201	c9.jpg	191
94.57	2	5_1	1	0.9575312	c22.jpg	191
100.42	2	5_3	2	0.9425995	c23.jpg	191
104.82	2	5_1	1	1.070212	c7.jpg	191
111.4	2	5_3	2	0.965738	c14.jpg	191
116.89	2	5_2	2	1.100985	c15.jpg	191
123.85	2	5_2	2	0.9527598	c3.jpg	191
129.7	2	5_2	2	0.9557876	c20.jpg	191
133.74	2	5_2	2	1.333906	c22.jpg	191
138.13	2	5_3	2	0.9292535	c22.jpg	191
143.26	2	5_2	2	1.047565	c4.jpg	191
148.39	2	1_1	1	0.9388573	c21.jpg	191
153.88	2	1_1	1	0.9834099	c16.jpg	191
158.64	2	5_3	2	0.7631394	c4.jpg	191
165.58	2	5_3	2	1.008699	c15.jpg	191
172.16	2	5_3	2	0.7824948	c20.jpg	191
176.19	2	5_3	2	0.9722346	c5.jpg	191
182.04	2	5_3	2	0.638019	c12.jpg	191
189.72	2	5_4	2	0.7742115	c14.jpg	191
195.93	2	5_2	2	1.216174	c9.jpg	191
202.15	2	5_3	2	0.6662304	c9.jpg	191
209.45	2	5_4	2	0.641491	c20.jpg	191
214.58	2	5_4	2	0.738354	c4.jpg	191
220.79	2	5_4	2	0.7011126	c23.jpg	191
228.46	2	5_4	2	1.01001	c24.jpg	191
236.12	2	1_1	1	0.9461718	c10.jpg	191
241.97	2	5_5	2	0.6951603	c23.jpg	191
249.65	2	1_1	1	1.196322	c19.jpg	191
256.22	2	5_4	2	0.7546127	c5.jpg	191
263.53	2	5_4	2	0.8763171	c22.jpg	191
268.3	2	5_5	2	0.6293465	c22.jpg	191
275.25	2	1_1	1	1.239034	c13.jpg	191
279.66	2	1_1	1	1.142105	c6.jpg	191
287.33	2	5_5	2	0.6764629	c20.jpg	191
292.83	2	5_4	2	1.104767	c15.jpg	191
296.86	2	5_4	2	0.7866114	c9.jpg	191
302.35	2	5_2	2	1.6789	c7.jpg	191
307.84	2	5_4	2	0.6699168	c12.jpg	191
314.44	2	1_1	1	1.219198	c1.jpg	191
319.57	2	5_3	2	0.9910586	c7.jpg	191
324.32	2	5_4	2	0.6761128	c7.jpg	191
332.36	2	5_3	2	0.945261	c3.jpg	191
340.4	2	5_5	2	0.7646687	c14.jpg	191
346.97	2	5_5	2	0.6468378	c5.jpg	191
352.82	2	5_5	2	0.5826665	c4.jpg	191
360.86	2	5_4	2	0.6110597	c3.jpg	191
368.92	2	5_5	2	0.5925497	c3.jpg	191
376.23	2	5_5	2	0.9994112	c24.jpg	191
383.54	2	1_1	1	0.9904302	c2.jpg	191
390.48	2	5_5	2	0.6423957	c9.jpg	191
396.69	2	1_1	1	1.062129	c8.jpg	191
404.73	2	1_1	1	1.100926	c18.jpg	191
410.94	2	5_5	2	0.6544762	c7.jpg	191
417.9	2	5_5	2	0.6510221	c12.jpg	191
422.29	2	5_5	2	0.9605399	c15.jpg	191
430.32	2	1_1	1	0.9542774	c17.jpg	191
3.03	2	5_1	1	1.441871	c23.jpg	193
7.806	2	5_1	1	0.8020672	c20.jpg	193
14.389	2	5_1	1	0.9149604	c22.jpg	193
18.792	2	5_1	1	0.6861315	c9.jpg	193
24.647	2	5_1	1	0.4826438	c5.jpg	193
30.136	2	5_1	1	0.5718038	c7.jpg	193
36.357	2	5_1	1	0.7570765	c15.jpg	193
41.857	2	5_1	1	0.5711269	c3.jpg	193
49.524	2	5_1	1	0.8486839	c24.jpg	193
56.471	2	5_1	1	0.5090462	c12.jpg	193
62.33	2	5_2	1	0.5579485	c3.jpg	193
66.372	2	1_1	1	0.7267115	c8.jpg	193
71.854	2	5_2	2	0.968506	c20.jpg	193
75.895	2	5_1	1	1.156936	c14.jpg	193
83.568	2	5_1	1	1.312338	c4.jpg	193
90.879	2	5_2	2	1.014097	c4.jpg	193
95.644	2	1_1	1	0.7430078	c19.jpg	193
103.315	2	1_1	1	0.6675732	c13.jpg	193
109.159	2	5_2	2	1.504972	c5.jpg	193
116.841	2	5_3	2	1.119863	c3.jpg	193
120.894	2	1_1	1	1.363029	c2.jpg	193
127.116	2	5_3	2	0.9922656	c4.jpg	193
134.426	2	5_2	2	1.255647	c15.jpg	193
138.82	2	5_2	2	0.9994053	c22.jpg	193
144.672	2	5_3	2	1.271332	c15.jpg	193
149.078	2	5_4	2	1.028647	c3.jpg	193
154.2	2	5_2	NA	NA	c7.jpg	193
161.148	2	5_3	2	0.9599505	c22.jpg	193
165.903	2	5_3	2	0.7229603	c5.jpg	193
172.114	2	5_4	2	0.5351213	c5.jpg	193
179.056	2	5_2	2	1.15069	c24.jpg	193
184.542	2	5_5	2	0.574918	c5.jpg	193
190.761	2	5_3	2	0.5160888	c24.jpg	193
198.795	2	5_4	2	0.882465	c22.jpg	193
204.28	2	5_2	2	1.154668	c9.jpg	193
211.224	2	5_2	2	1.291622	c23.jpg	193
216.355	2	5_2	2	0.6658222	c12.jpg	193
224.395	2	5_3	2	0.605637	c12.jpg	193
231.701	2	5_3	2	0.525619	c23.jpg	193
236.466	2	5_3	2	0.84219	c20.jpg	193
243.044	2	5_4	2	0.8355486	c4.jpg	193
248.532	2	5_2	1	1.052797	c14.jpg	193
256.207	2	5_3	2	0.9933899	c9.jpg	193
263.514	2	5_4	2	0.8357791	c12.jpg	193
268.645	2	1_1	1	1.995359	c18.jpg	193
273.411	2	5_3	2	1.600149	c7.jpg	193
279.992	2	5_4	2	0.7140019	c7.jpg	193
286.944	2	1_1	1	1.065012	c11.jpg	193
294.267	2	1_1	1	1.11817	c1.jpg	193
298.667	2	1_1	2	1.299205	c21.jpg	193
305.246	2	5_4	2	0.7852062	c9.jpg	193
311.83	2	1_1	1	1.970168	c6.jpg	193
319.869	2	5_5	2	0.7384372	c12.jpg	193
327.909	2	5_4	2	1.613553	c24.jpg	193
335.948	2	5_4	2	0.9960309	c15.jpg	193
343.626	2	5_4	2	1.77601	c23.jpg	193
349.849	2	5_5	2	0.7766463	c4.jpg	193
357.153	2	5_5	2	0.780101	c23.jpg	193
363.007	2	5_3	2	0.6563433	c14.jpg	193
369.582	2	5_5	2	0.7853566	c7.jpg	193
373.622	2	5_5	2	0.8144354	c15.jpg	193
379.838	2	1_1	1	0.9901516	c10.jpg	193
386.781	2	1_1	2	1.459019	c16.jpg	193
391.923	2	5_5	2	0.9264055	c3.jpg	193
397.047	2	5_4	2	0.7431177	c20.jpg	193
402.898	2	5_5	2	0.7989509	c9.jpg	193
406.941	2	5_4	2	1.398475	c14.jpg	193
412.064	2	5_5	2	0.5260926	c14.jpg	193
420.096	2	5_5	2	0.8498032	c22.jpg	193
424.863	2	5_5	2	1.015824	c24.jpg	193
429.263	2	5_5	2	0.6181134	c20.jpg	193
433.659	2	1_1	1	0.8738274	c17.jpg	193
3.073	2	5_1	NA	NA	c7.jpg	197
10.746	2	5_2	2	0.8320256	c7.jpg	197
16.645	2	5_1	1	1.039596	c24.jpg	197
20.682	2	5_1	1	0.9221914	c22.jpg	197
25.827	2	1_1	1	0.6114085	c10.jpg	197
30.233	2	5_1	1	0.5065795	c14.jpg	197
35.742	2	5_1	1	0.6030378	c9.jpg	197
40.888	2	1_1	1	0.4656239	c6.jpg	197
48.564	2	1_1	1	0.5919476	c13.jpg	197
53.336	2	5_1	1	0.572439	c5.jpg	197
58.103	2	5_1	1	0.6863726	c15.jpg	197
64.694	2	5_1	1	0.6330232	c23.jpg	197
70.571	2	5_1	1	0.5568762	c12.jpg	197
78.636	2	5_1	1	0.576976	c3.jpg	197
83.035	2	5_2	1	0.6989575	c15.jpg	197
89.277	2	1_1	1	0.9529742	c18.jpg	197
95.128	2	5_2	2	0.9081175	c23.jpg	197
100.61	2	5_2	1	1.12362	c9.jpg	197
108.64	2	5_3	2	0.7769162	c23.jpg	197
115.586	2	5_2	2	0.8737437	c12.jpg	197
123.643	2	5_1	1	1.408063	c20.jpg	197
128.062	2	5_1	1	1.387048	c4.jpg	197
135.01	2	5_2	2	0.7534889	c24.jpg	197
140.495	2	5_3	2	0.5822978	c24.jpg	197
144.536	2	5_2	2	0.9091037	c20.jpg	197
152.213	2	5_4	2	0.7085202	c23.jpg	197
158.426	2	1_1	1	1.644668	c11.jpg	197
163.907	2	5_4	2	0.705571	c24.jpg	197
170.847	2	5_3	1	1.047864	c7.jpg	197
175.967	2	5_2	2	0.9819661	c4.jpg	197
183.64	2	5_2	1	0.9414532	c22.jpg	197
189.49	2	5_3	2	1.040805	c15.jpg	197
194.974	2	5_2	2	1.05964	c14.jpg	197
201.55	2	5_3	2	0.8705552	c20.jpg	197
208.867	2	1_1	1	0.8289439	c8.jpg	197
216.167	2	5_3	2	0.7997458	c4.jpg	197
222.746	2	5_4	2	1.058771	c15.jpg	197
226.774	2	5_3	2	1.026072	c12.jpg	197
234.443	2	5_4	2	1.164808	c7.jpg	197
240.289	2	5_3	2	0.9526589	c22.jpg	197
247.622	2	1_1	1	0.9491966	c1.jpg	197
254.2	2	5_3	2	0.7462325	c14.jpg	197
258.974	2	1_1	1	1.060852	c16.jpg	197
263.005	2	5_2	2	1.069776	c5.jpg	197
268.865	2	5_5	2	0.566611	c24.jpg	197
275.825	2	5_2	1	1.105981	c3.jpg	197
279.864	2	5_3	2	0.8288383	c5.jpg	197
284.632	2	5_3	2	0.8308664	c9.jpg	197
289.763	2	5_4	2	0.604534	c20.jpg	197
297.08	2	5_3	2	0.7308173	c3.jpg	197
301.478	2	5_4	2	0.8710854	c4.jpg	197
305.885	2	5_5	2	0.6744208	c23.jpg	197
312.097	2	5_4	2	0.5921582	c14.jpg	197
316.492	2	5_4	2	0.7017163	c22.jpg	197
324.17	2	5_5	2	0.7806063	c7.jpg	197
331.133	2	1_1	1	0.8715426	c21.jpg	197
339.184	2	5_4	2	0.8032656	c3.jpg	197
344.318	2	1_1	1	1.026495	c17.jpg	197
349.472	2	1_1	1	1.003062	c19.jpg	197
355.714	2	1_1	1	1.079965	c2.jpg	197
362.661	2	5_4	1	0.7416817	c9.jpg	197
368.15	2	5_5	2	0.6258909	c4.jpg	197
374.367	2	5_4	2	0.6924985	c5.jpg	197
381.681	2	5_5	2	0.8609711	c15.jpg	197
386.444	2	5_4	2	0.7453414	c12.jpg	197
394.477	2	5_5	2	1.285186	c9.jpg	197
401.783	2	5_5	2	0.9915164	c20.jpg	197
406.551	2	5_5	2	0.707846	c22.jpg	197
412.775	2	5_5	2	0.5470455	c12.jpg	197
419.359	2	5_5	2	0.5724961	c14.jpg	197
427.4	2	5_5	2	0.6729857	c5.jpg	197
431.561	2	5_5	2	1.024421	c3.jpg	197
3.04	2	5_1	NA	NA	c16.jpg	202
7.8	2	5_2	2	0.7584847	c16.jpg	202
14.02	2	5_1	1	0.7453983	c6.jpg	202
21.34	2	5_1	1	1.128445	c19.jpg	202
28.64	2	5_1	1	1.093699	c17.jpg	202
35.59	2	1_1	1	1.159252	c22.jpg	202
42.52	2	5_3	2	1.159833	c16.jpg	202
49.1	2	5_1	1	1.219475	c11.jpg	202
53.49	2	5_1	1	1.47586	c10.jpg	202
59.7	2	5_1	1	0.8820245	c8.jpg	202
65.56	2	5_2	2	0.9991469	c17.jpg	202
73.23	2	5_2	2	1.02114	c8.jpg	202
80.9	2	5_3	2	1.036538	c17.jpg	202
88.57	2	5_2	2	1.422415	c6.jpg	202
94.79	2	1_1	1	0.9291782	c14.jpg	202
101.37	2	5_2	2	1.259103	c10.jpg	202
105.42	2	5_1	1	1.019134	c2.jpg	202
109.46	2	5_1	1	1.052913	c13.jpg	202
115.31	2	5_1	1	0.9957421	c21.jpg	202
121.16	2	5_3	2	1.066974	c6.jpg	202
125.58	2	5_1	1	1.220702	c1.jpg	202
130.71	2	1_1	1	1.039771	c4.jpg	202
135.84	2	5_3	2	1.25616	c8.jpg	202
141.33	2	5_4	2	1.791308	c17.jpg	202
145.75	2	5_2	1	1.202093	c1.jpg	202
151.26	2	5_2	2	1.055775	c2.jpg	202
156.01	2	5_2	2	1.026027	c11.jpg	202
163.68	2	5_4	2	1.237145	c8.jpg	202
168.81	2	5_3	2	1.28241	c11.jpg	202
175.39	2	5_1	1	0.9049349	c18.jpg	202
181.97	2	5_4	2	1.310884	c6.jpg	202
190.01	2	5_2	2	1.397167	c19.jpg	202
196.95	2	5_2	2	1.074761	c18.jpg	202
203.89	2	5_2	2	1.148911	c13.jpg	202
209.38	2	5_3	2	1.012833	c10.jpg	202
214.89	2	5_3	2	0.9523006	c2.jpg	202
221.46	2	1_1	1	1.025568	c24.jpg	202
228.76	2	5_3	2	0.9352906	c18.jpg	202
234.99	2	5_2	2	1.291048	c21.jpg	202
239.04	2	5_4	2	1.132902	c2.jpg	202
247.08	2	5_4	2	1.231234	c16.jpg	202
254.03	2	5_3	2	1.222972	c19.jpg	202
260.99	2	5_5	2	1.163138	c2.jpg	202
269.03	2	5_4	2	1.227511	c11.jpg	202
275.61	2	5_4	2	1.173527	c18.jpg	202
281.46	2	5_3	2	1.043494	c13.jpg	202
286.22	2	5_4	2	1.138093	c10.jpg	202
294.27	2	1_1	1	1.107739	c3.jpg	202
298.32	2	5_3	2	1.154645	c1.jpg	202
304.54	2	1_1	1	0.9415464	c15.jpg	202
310.76	2	5_4	2	1.041722	c19.jpg	202
318.79	2	5_4	2	1.116874	c13.jpg	202
322.83	2	1_1	1	1.084735	c9.jpg	202
330.5	2	1_1	1	1.07032	c23.jpg	202
338.54	2	5_5	2	1.220505	c17.jpg	202
345.86	2	5_4	2	1.155847	c1.jpg	202
350.99	2	5_5	2	1.002192	c1.jpg	202
355.39	2	5_5	2	0.8901278	c10.jpg	202
360.15	2	5_5	2	1.154359	c11.jpg	202
367.45	2	1_1	1	1.016954	c12.jpg	202
373.3	2	5_5	2	1.033707	c13.jpg	202
378.43	2	1_1	1	0.9812176	c7.jpg	202
383.19	2	5_3	2	1.295597	c21.jpg	202
387.94	2	5_5	2	1.301521	c6.jpg	202
395.61	2	5_4	2	1.328978	c21.jpg	202
399.64	2	5_5	2	1.651716	c16.jpg	202
405.13	2	5_5	2	1.244916	c8.jpg	202
409.53	2	5_5	2	1.34032	c21.jpg	202
415.38	2	1_1	1	1.41475	c20.jpg	202
419.78	2	1_1	1	1.024784	c5.jpg	202
425.26	2	5_5	2	1.089772	c18.jpg	202
430.38	2	5_5	2	1.191384	c19.jpg	202
3.1	2	5_1	1	1.151719	c19.jpg	203
7.5	2	5_1	1	0.5342691	c2.jpg	203
14.1	2	5_1	1	0.6552376	c11.jpg	203
21	2	5_1	2	1.04986	c10.jpg	203
26.1	2	5_1	1	0.9034766	c6.jpg	203
31.6	2	5_1	1	0.7921406	c13.jpg	203
39.3	2	5_2	2	1.684091	c19.jpg	203
43.7	2	5_1	1	0.7640497	c18.jpg	203
48.5	2	5_1	1	1.393761	c17.jpg	203
52.5	2	5_1	1	0.9077049	c16.jpg	203
56.5	2	5_2	1	1.26589	c11.jpg	203
62.4	2	5_2	2	1.08065	c2.jpg	203
67.9	2	5_2	2	0.9711699	c6.jpg	203
74.8	2	5_1	NA	NA	c1.jpg	203
81.4	2	5_3	2	1.188196	c19.jpg	203
86.9	2	5_2	2	0.9908191	c10.jpg	203
94.2	2	5_3	2	0.8613121	c10.jpg	203
102.2	2	5_1	NA	NA	c21.jpg	203
108.8	2	5_3	2	1.765085	c6.jpg	203
116.1	2	5_2	2	1.189665	c1.jpg	203
123.1	2	5_2	1	0.6457688	c13.jpg	203
129.3	2	1_1	2	3.63E-04	c23.jpg	203
133.3	2	5_4	2	0.8080063	c10.jpg	203
137.4	2	5_2	2	0.8766884	c17.jpg	203
144.7	2	1_1	2	3.84E-04	c5.jpg	203
150.9	2	5_3	1	3.94E-04	c2.jpg	203
155.3	2	1_1	1	1.113733	c15.jpg	203
162.3	2	5_1	1	1.092847	c8.jpg	203
166.3	2	5_2	2	1.128296	c16.jpg	203
174	2	1_1	1	1.227636	c7.jpg	203
178.4	2	5_3	2	1.681119	c16.jpg	203
186	2	5_4	2	0.8703707	c6.jpg	203
194.1	2	5_4	2	1.2247	c2.jpg	203
200.3	2	5_2	2	1.099734	c21.jpg	203
206.9	2	1_1	1	0.899492	c4.jpg	203
214.5	2	1_1	1	0.8124982	c14.jpg	203
221.1	2	1_1	NA	NA	c24.jpg	203
226.2	2	5_2	NA	NA	c8.jpg	203
233.5	2	1_1	1	1.737869	c9.jpg	203
238.3	2	5_5	1	1.241355	c10.jpg	203
245.2	2	5_3	2	1.060964	c21.jpg	203
253.3	2	5_2	2	1.459375	c18.jpg	203
259.1	2	1_1	1	1.5179	c20.jpg	203
266.4	2	5_3	2	0.7861742	c17.jpg	203
274.1	2	5_3	2	0.7572561	c18.jpg	203
279.3	2	1_1	1	1.348516	c12.jpg	203
284.7	2	5_4	2	1.080084	c16.jpg	203
292.8	2	5_4	2	0.6281342	c17.jpg	203
297.5	2	5_3	1	1.436286	c13.jpg	203
304.5	2	5_5	2	0.8871581	c2.jpg	203
310	2	5_4	2	0.9960177	c13.jpg	203
314.8	2	5_3	2	0.8232008	c1.jpg	203
321	2	5_4	2	0.6612348	c18.jpg	203
326.1	2	5_3	2	1.383608	c8.jpg	203
330.1	2	5_5	2	1.276551	c6.jpg	203
334.9	2	1_1	1	1.009418	c22.jpg	203
340.7	2	5_5	2	0.7797252	c17.jpg	203
345.5	2	5_5	2	1.424195	c16.jpg	203
353.2	2	5_3	NA	NA	c11.jpg	203
358.7	2	5_4	NA	NA	c8.jpg	203
364.5	2	5_5	2	1.048007	c18.jpg	203
369.6	2	5_5	2	0.7256423	c8.jpg	203
377.7	2	5_4	2	1.456087	c11.jpg	203
383.5	2	5_4	2	0.9118444	c1.jpg	203
388.7	2	5_4	2	2.49E-04	c19.jpg	203
394.9	2	5_4	2	1.464008	c21.jpg	203
399.3	2	5_5	2	0.9023822	c11.jpg	203
405.1	2	5_5	NA	NA	c13.jpg	203
411.4	2	1_1	NA	NA	c3.jpg	203
419.4	2	5_5	2	0.9135728	c19.jpg	203
426	2	5_5	2	0.9809614	c21.jpg	203
433.3	2	5_5	NA	NA	c1.jpg	203
3.01	2	1_1	1	0.8523832	c12.jpg	204
10.33	2	5_1	1	1.680455	c21.jpg	204
15.45	2	5_1	1	0.9879467	c18.jpg	204
19.48	2	5_1	1	1.1186	c19.jpg	204
26.06	2	1_1	1	1.269962	c23.jpg	204
31.91	2	5_1	1	1.010511	c11.jpg	204
39.58	2	5_1	1	1.05515	c8.jpg	204
44.33	2	5_1	1	1.069688	c10.jpg	204
50.92	2	5_1	1	1.227607	c1.jpg	204
57.86	2	5_2	NA	NA	c18.jpg	204
62.98	2	1_1	1	0.9536522	c7.jpg	204
68.1	2	5_1	1	0.7557757	c17.jpg	204
73.22	2	5_1	1	1.126556	c13.jpg	204
77.97	2	1_1	1	1.000329	c5.jpg	204
83.47	2	1_1	1	1.069573	c4.jpg	204
88.22	2	5_2	2	1.416962	c11.jpg	204
92.25	2	5_2	2	0.8840749	c8.jpg	204
96.65	2	5_1	1	1.079666	c6.jpg	204
104.33	2	5_1	1	1.143853	c2.jpg	204
108.37	2	5_2	2	0.7603846	c2.jpg	204
113.87	2	5_2	2	1.5537	c1.jpg	204
121.17	2	5_3	2	0.8166879	c18.jpg	204
126.66	2	5_2	2	0.9981942	c6.jpg	204
131.06	2	5_3	2	1.133093	c1.jpg	204
135.09	2	5_2	2	0.8575936	c21.jpg	204
141.31	2	5_2	2	1.081801	c13.jpg	204
148.25	2	5_2	2	1.111677	c10.jpg	204
155.19	2	5_3	2	0.7732177	c6.jpg	204
161.76	2	5_2	2	1.077198	c19.jpg	204
169.79	2	5_3	2	1.306285	c8.jpg	204
177.83	2	1_1	1	1.537047	c9.jpg	204
185.49	2	5_4	2	0.8323765	c8.jpg	204
190.25	2	5_2	2	0.7878266	c17.jpg	204
196.46	2	5_4	2	0.8807155	c6.jpg	204
203.77	2	5_3	2	0.8731571	c13.jpg	204
211.07	2	5_3	2	0.8112141	c11.jpg	204
218	2	5_3	2	1.28267	c21.jpg	204
222.78	2	1_1	1	1.184801	c3.jpg	204
227.18	2	5_4	2	0.8731283	c18.jpg	204
231.58	2	5_1	1	1.217408	c16.jpg	204
239.24	2	5_3	2	0.8240126	c19.jpg	204
244.36	2	5_3	2	0.9250721	c10.jpg	204
250.23	2	5_3	2	1.183893	c2.jpg	204
256.44	2	5_2	2	1.379351	c16.jpg	204
261.92	2	5_4	2	0.9103289	c21.jpg	204
269.96	2	5_5	2	0.8424293	c6.jpg	204
276.91	2	1_1	1	1.444236	c14.jpg	204
283.12	2	5_3	2	0.6576151	c17.jpg	204
290.43	2	5_5	2	0.8282875	c18.jpg	204
296.65	2	5_3	2	1.20445	c16.jpg	204
303.95	2	5_4	2	0.7994503	c11.jpg	204
311.98	2	5_4	2	0.8499226	c10.jpg	204
317.83	2	1_1	1	1.294592	c15.jpg	204
325.86	2	5_5	2	0.8248706	c10.jpg	204
331.73	2	5_4	2	1.362409	c1.jpg	204
338.32	2	1_1	1	0.9887655	c24.jpg	204
342.34	2	5_4	2	0.7998638	c16.jpg	204
346.75	2	5_4	2	0.7185147	c19.jpg	204
351.51	2	5_4	2	0.8762174	c13.jpg	204
359.55	2	5_4	2	0.7896749	c2.jpg	204
367.22	2	5_5	2	0.9314661	c21.jpg	204
373.08	2	5_5	2	0.6250132	c2.jpg	204
379.66	2	5_5	2	0.623613	c19.jpg	204
387.33	2	5_5	2	0.7441294	c16.jpg	204
392.46	2	5_5	2	0.9445047	c1.jpg	204
398.67	2	5_5	2	0.6817408	c13.jpg	204
404.16	2	5_4	2	0.6321784	c17.jpg	204
410.01	2	1_1	1	1.309983	c20.jpg	204
416.59	2	5_5	2	0.8175072	c11.jpg	204
420.61	2	5_5	2	0.7958302	c8.jpg	204
425.01	2	1_1	1	1.407948	c22.jpg	204
431.96	2	5_5	2	0.610765	c17.jpg	204
3.07	2	5_1	NA	NA	c24.jpg	205
11.14	2	1_1	1	0.7268276	c19.jpg	205
16.3	2	5_1	NA	NA	c20.jpg	205
21.78	2	5_1	NA	NA	c5.jpg	205
29.1	2	5_1	1	0.9403501	c14.jpg	205
34.6	2	5_1	1	0.9495164	c22.jpg	205
42.67	2	5_1	1	1.716523	c3.jpg	205
50.34	2	5_1	NA	NA	c9.jpg	205
54.38	2	5_1	NA	NA	c7.jpg	205
59.15	2	1_1	2	0.7940895	c17.jpg	205
66.46	2	5_1	NA	NA	c4.jpg	205
74.49	2	5_2	2	1.225898	c24.jpg	205
78.89	2	5_2	1	1.940289	c4.jpg	205
86.2	2	1_1	NA	NA	c16.jpg	205
93.88	2	5_1	1	1.300821	c15.jpg	205
99.36	2	5_3	2	1.274246	c24.jpg	205
105.22	2	5_2	NA	NA	c20.jpg	205
111.43	2	5_2	2	1.306202	c14.jpg	205
116.19	2	5_2	NA	NA	c5.jpg	205
123.85	2	5_3	2	0.9650754	c14.jpg	205
127.88	2	5_2	2	1.549986	c7.jpg	205
134.14	2	1_1	1	1.786919	c8.jpg	205
142.18	2	5_1	1	1.602222	c23.jpg	205
147.31	2	5_2	1	1.431558	c15.jpg	205
153.53	2	1_1	1	1.630459	c21.jpg	205
159.75	2	5_2	2	1.624035	c22.jpg	205
165.23	2	5_3	2	1.14266	c5.jpg	205
169.98	2	5_1	1	1.767312	c12.jpg	205
175.49	2	5_2	1	1.895807	c3.jpg	205
183.16	2	5_2	2	1.039722	c12.jpg	205
188.32	2	1_1	1	1.718068	c2.jpg	205
195.29	2	1_1	2	1.28415	c1.jpg	205
201.87	2	5_4	2	1.626711	c24.jpg	205
208.81	2	5_5	2	0.9696453	c24.jpg	205
216.86	2	5_3	2	1.220817	c3.jpg	205
223.07	2	5_3	1	1.701082	c20.jpg	205
230.75	2	5_2	1	1.685334	c9.jpg	205
234.79	2	5_3	2	1.062121	c7.jpg	205
242.1	2	1_1	1	1.483802	c13.jpg	205
247.6	2	1_1	1	1.304383	c6.jpg	205
252.36	2	5_3	1	1.490721	c4.jpg	205
257.49	2	5_4	2	1.061368	c3.jpg	205
264.8	2	5_3	2	1.213314	c9.jpg	205
269.2	2	5_3	2	1.34566	c12.jpg	205
273.97	2	5_5	2	0.7924625	c3.jpg	205
279.1	2	5_4	2	1.41775	c20.jpg	205
286.76	2	5_4	NA	NA	c14.jpg	205
293.35	2	5_2	NA	NA	c23.jpg	205
298.11	2	5_3	2	0.7721846	c23.jpg	205
303.98	2	1_1	2	1.199265	c10.jpg	205
309.82	2	5_3	2	1.011239	c22.jpg	205
316.76	2	5_4	2	1.009048	c9.jpg	205
323.34	2	5_4	2	1.731879	c5.jpg	205
329.19	2	5_5	NA	NA	c14.jpg	205
333.59	2	5_4	2	1.174027	c7.jpg	205
337.98	2	5_4	2	0.7295764	c12.jpg	205
344.93	2	5_4	2	1.195399	c22.jpg	205
348.96	2	5_4	2	1.246945	c4.jpg	205
355.9	2	5_3	NA	NA	c15.jpg	205
363.2	2	5_5	NA	NA	c22.jpg	205
367.6	2	1_1	1	1.091567	c11.jpg	205
372.01	2	5_4	2	1.34519	c23.jpg	205
378.59	2	5_5	2	1.03525	c7.jpg	205
385.17	2	5_4	NA	NA	c15.jpg	205
393.21	2	5_5	2	0.9780069	c9.jpg	205
399.07	2	5_5	2	1.165329	c5.jpg	205
405.64	2	5_5	2	0.8715065	c4.jpg	205
411.5	2	5_5	2	1.599147	c23.jpg	205
417.71	2	5_5	2	1.447471	c15.jpg	205
422.85	2	1_1	1	1.804501	c18.jpg	205
426.88	2	5_5	2	1.107345	c12.jpg	205
433.82	2	5_5	2	1.138445	c20.jpg	205
3	2	5_1	1	1.012139	c8.jpg	212
9.2	2	5_1	1	1.776583	c18.jpg	212
13.6	2	5_1	1	1.87219	c17.jpg	212
17.6	2	5_1	NA	NA	c6.jpg	212
24.6	2	5_1	1	1.489886	c1.jpg	212
30.4	2	5_1	1	1.248502	c11.jpg	212
36.7	2	1_1	1	1.52949	c7.jpg	212
41.4	2	5_1	1	1.285108	c13.jpg	212
48.7	2	5_2	2	1.063299	c8.jpg	212
56.4	2	5_2	2	0.8754685	c17.jpg	212
64.4	2	5_1	1	1.266294	c2.jpg	212
71.7	2	5_2	2	1.20471	c13.jpg	212
76.9	2	5_3	2	1.266045	c17.jpg	212
80.9	2	5_2	2	0.9524021	c2.jpg	212
86	2	5_1	1	1.067558	c19.jpg	212
94.1	2	5_2	NA	NA	c11.jpg	212
99.5	2	5_3	2	0.8548646	c13.jpg	212
103.6	2	5_3	2	1.606786	c2.jpg	212
108	2	1_1	1	1.168103	c20.jpg	212
115.6	2	5_1	1	0.971428	c16.jpg	212
123.3	2	5_3	NA	NA	c11.jpg	212
128.4	2	5_2	2	1.112955	c16.jpg	212
134.3	2	5_2	2	1.156808	c6.jpg	212
141.2	2	5_2	2	1.184546	c18.jpg	212
147.4	2	5_3	2	0.9026329	c18.jpg	212
154.4	2	5_3	2	1.052086	c6.jpg	212
160.2	2	1_1	NA	NA	c15.jpg	212
168.3	2	5_2	2	1.184151	c19.jpg	212
175.6	2	5_3	2	1.296987	c8.jpg	212
181.8	2	5_4	2	0.82668	c13.jpg	212
187.3	2	5_3	2	0.8450576	c19.jpg	212
192.1	2	5_4	2	0.7722641	c17.jpg	212
196.4	2	5_1	NA	NA	c21.jpg	212
203.4	2	5_1	1	0.8276207	c10.jpg	212
210	2	5_2	2	1.056354	c21.jpg	212
214	2	5_2	2	1.108835	c10.jpg	212
220.6	2	5_5	2	0.9224249	c13.jpg	212
227.2	2	5_3	2	0.9162732	c21.jpg	212
232.3	2	1_1	1	1.040255	c22.jpg	212
238.2	2	5_2	2	1.766956	c1.jpg	212
245.8	2	1_1	1	1.136711	c14.jpg	212
251.3	2	5_3	2	1.175447	c16.jpg	212
257.2	2	1_1	1	1.13705	c3.jpg	212
261.6	2	5_5	2	0.8637083	c17.jpg	212
269.3	2	5_3	2	1.358367	c1.jpg	212
273.3	2	1_1	1	1.655681	c23.jpg	212
279.9	2	5_4	2	1.895913	c6.jpg	212
286.1	2	5_3	2	1.406091	c10.jpg	212
290.9	2	5_4	2	1.08994	c19.jpg	212
297.4	2	5_4	2	0.7461927	c18.jpg	212
302.2	2	5_5	2	0.7939481	c19.jpg	212
309.5	2	5_4	2	1.106196	c21.jpg	212
314.3	2	1_1	1	1.061002	c12.jpg	212
320.5	2	5_5	2	0.7218425	c18.jpg	212
328.1	2	5_4	2	1.025189	c11.jpg	212
333.3	2	5_5	2	0.8162948	c6.jpg	212
340.2	2	5_5	2	0.6992654	c21.jpg	212
345	2	5_4	2	0.6683492	c16.jpg	212
350.5	2	5_4	2	0.7284329	c1.jpg	212
354.9	2	1_1	1	1.992182	c9.jpg	212
361.8	2	1_1	1	0.8254815	c24.jpg	212
365.8	2	1_1	1	1.731477	c5.jpg	212
373.2	2	5_5	2	0.7578925	c1.jpg	212
379.7	2	5_4	2	1.02188	c10.jpg	212
387.8	2	5_5	2	0.6957277	c10.jpg	212
393.3	2	5_4	2	1.359284	c8.jpg	212
398.7	2	5_5	2	0.7618475	c11.jpg	212
403.1	2	5_4	2	1.078026	c2.jpg	212
409	2	1_1	1	1.351148	c4.jpg	212
414.1	2	5_5	2	0.6857093	c8.jpg	212
421.4	2	5_5	2	0.9022913	c2.jpg	212
429.5	2	5_5	2	0.9673299	c16.jpg	212
3	2	5_1	NA	NA	c6.jpg	215
7.73	2	5_1	1	0.771	c16.jpg	215
11.7	2	5_1	1	0.941	c18.jpg	215
17.9	2	5_2	2	0.931	c6.jpg	215
23.7	2	5_3	2	0.896	c6.jpg	215
29.6	2	5_2	2	1.05	c16.jpg	215
34.6	2	5_1	1	1.26	c17.jpg	215
41.9	2	5_1	1	1.57	c13.jpg	215
49.2	2	5_1	1	1.4	c19.jpg	215
53.5	2	1_1	1	0.801	c24.jpg	215
61.5	2	5_2	2	1.16	c17.jpg	215
68.1	2	5_3	2	1.12	c16.jpg	215
75	2	5_1	NA	NA	c2.jpg	215
80.8	2	5_2	1	0.641	c2.jpg	215
88.5	2	5_1	1	1.05	c21.jpg	215
92.8	2	5_2	2	1.01	c19.jpg	215
99.4	2	5_1	1	1.36	c1.jpg	215
104	2	5_1	1	1.13	c10.jpg	215
112	2	5_1	1	0.891	c8.jpg	215
119	2	5_3	2	0.991	c2.jpg	215
127	2	5_3	2	1.19	c19.jpg	215
133	2	5_1	1	1.1	c11.jpg	215
138	2	5_2	2	1.2	c8.jpg	215
143	2	1_1	1	0.869	c5.jpg	215
150	2	5_2	2	1.02	c13.jpg	215
156	2	5_4	2	0.814	c6.jpg	215
162	2	1_1	NA	NA	c3.jpg	215
167	2	5_2	2	1.09	c18.jpg	215
172	2	5_4	2	1.01	c19.jpg	215
178	2	1_1	1	1.19	c7.jpg	215
185	2	1_1	1	1.38	c23.jpg	215
190	2	5_3	2	0.898	c13.jpg	215
197	2	1_1	1	1.33	c15.jpg	215
201	2	5_4	2	1.32	c2.jpg	215
209	2	5_2	2	1.22	c21.jpg	215
214	2	5_5	2	1.08	c6.jpg	215
220	2	5_2	2	1.59	c11.jpg	215
227	2	5_3	2	0.755	c11.jpg	215
231	2	5_5	2	1.26	c2.jpg	215
238	2	5_3	2	0.822	c17.jpg	215
246	2	1_1	1	0.959	c22.jpg	215
251	2	5_5	2	1.01	c19.jpg	215
255	2	5_4	2	1.18	c16.jpg	215
263	2	5_4	2	0.687	c17.jpg	215
268	2	1_1	1	1.37	c4.jpg	215
274	2	5_3	1	0.836	c8.jpg	215
278	2	5_4	2	3.62E-04	c8.jpg	215
282	2	5_2	2	0.831	c1.jpg	215
289	2	5_3	2	1.19	c18.jpg	215
295	2	5_3	2	1.23	c1.jpg	215
302	2	1_1	1	1.15	c20.jpg	215
308	2	5_5	2	0.739	c8.jpg	215
315	2	5_4	2	0.702	c18.jpg	215
319	2	5_3	2	0.99	c21.jpg	215
323	2	5_4	2	0.791	c21.jpg	215
331	2	5_4	2	0.687	c1.jpg	215
337	2	5_4	2	1.44	c13.jpg	215
344	2	1_1	1	1.04	c14.jpg	215
349	2	5_5	2	0.686	c17.jpg	215
356	2	5_4	2	1.91	c11.jpg	215
364	2	5_2	2	1.23	c10.jpg	215
370	2	5_3	2	0.599	c10.jpg	215
375	2	5_5	2	0.741	c16.jpg	215
380	2	5_4	2	0.826	c10.jpg	215
387	2	5_5	2	1.21	c21.jpg	215
393	2	5_5	2	0.895	c13.jpg	215
399	2	5_5	2	0.901	c18.jpg	215
404	2	1_1	NA	NA	c9.jpg	215
411	2	5_5	2	0.638	c11.jpg	215
416	2	5_5	2	0.732	c10.jpg	215
423	2	5_5	2	0.896	c1.jpg	215
431	2	1_1	1	1.03	c12.jpg	215
3.1	2	1_1	NA	NA	c20.jpg	220
7.5	2	5_1	1	1.244622	c18.jpg	220
14.4	2	1_1	1	0.7040491	c15.jpg	220
18.5	2	5_1	1	1.514991	c2.jpg	220
25.4	2	1_1	2	1.037215	c5.jpg	220
30.2	2	5_1	1	1.470083	c21.jpg	220
34.2	2	5_1	1	1.080323	c6.jpg	220
38.6	2	5_2	2	1.217737	c21.jpg	220
45.6	2	5_1	1	1.362628	c17.jpg	220
51.4	2	5_2	2	1.314541	c18.jpg	220
58.7	2	5_2	2	1.576402	c2.jpg	220
63.2	2	5_1	NA	NA	c1.jpg	220
69	2	1_1	1	1.502545	c12.jpg	220
75.2	2	5_1	1	1.183862	c8.jpg	220
83.3	2	5_1	1	1.108726	c19.jpg	220
91.3	2	5_3	2	1.436486	c2.jpg	220
98.6	2	5_2	1	0.1464233	c17.jpg	220
105.9	2	5_1	1	1.549249	c13.jpg	220
111.4	2	5_2	2	1.284398	c6.jpg	220
116.6	2	5_3	2	1.220408	c21.jpg	220
123.2	2	5_2	2	1.424577	c1.jpg	220
129	2	5_3	2	1.162209	c1.jpg	220
133.8	2	5_3	2	1.601781	c17.jpg	220
141.8	2	1_1	NA	NA	c3.jpg	220
147.7	2	5_2	2	1.444484	c19.jpg	220
151.7	2	1_1	NA	NA	c14.jpg	220
157.2	2	5_4	2	1.056732	c21.jpg	220
164.9	2	5_1	2	1.490146	c11.jpg	220
171.8	2	5_2	2	1.206775	c11.jpg	220
179.5	2	5_3	2	1.135641	c6.jpg	220
184.3	2	5_3	2	1.279596	c18.jpg	220
190.8	2	5_3	2	1.065753	c11.jpg	220
195.6	2	5_4	2	1.240722	c2.jpg	220
202.2	2	5_2	2	1.047842	c13.jpg	220
206.2	2	5_1	1	1.892444	c10.jpg	220
211.7	2	5_2	1	1.296385	c10.jpg	220
219.8	2	1_1	1	1.350016	c4.jpg	220
227.8	2	5_3	2	1.588061	c10.jpg	220
235.4	2	5_3	2	0.9085474	c19.jpg	220
241.7	2	5_1	1	1.804024	c16.jpg	220
248.6	2	5_4	2	1.060442	c1.jpg	220
255.2	2	5_3	2	1.383513	c13.jpg	220
259.6	2	5_2	2	1.91446	c8.jpg	220
264.4	2	5_5	2	0.9580881	c2.jpg	220
269.9	2	5_2	2	1.342233	c16.jpg	220
277.5	2	5_4	2	1.0744	c18.jpg	220
283.7	2	5_4	2	0.9673584	c17.jpg	220
291	2	5_5	2	1.116178	c21.jpg	220
297.3	2	5_4	2	1.768414	c11.jpg	220
302.4	2	5_5	NA	NA	c1.jpg	220
306.8	2	1_1	2	1.153163	c24.jpg	220
314.1	2	5_4	2	0.962568	c19.jpg	220
318.5	2	5_3	2	1.268632	c8.jpg	220
324.4	2	1_1	1	1.683561	c23.jpg	220
332	2	5_4	2	1.11253	c13.jpg	220
339.7	2	5_5	2	1.10445	c11.jpg	220
343.7	2	5_4	2	1.271088	c8.jpg	220
349.9	2	5_5	2	0.7774337	c19.jpg	220
357.2	2	5_4	2	0.876187	c6.jpg	220
362	2	5_3	2	0.8109914	c16.jpg	220
367.1	2	5_4	2	1.024186	c10.jpg	220
373.7	2	5_5	2	5.66E-04	c10.jpg	220
379.2	2	5_5	2	0.8636578	c6.jpg	220
384.3	2	1_1	NA	NA	c9.jpg	220