onset	duration	trial_type	stim	response	response_time	sub
3	6	1	p21.jpg	2	3.935881	103
14.7	6	5	p13.jpg	5	2.51278	103
26.8	6	5	p6.jpg	5	2.873042	103
36.2	6	5	p7.jpg	3	3.098916	103
44.7	6	5	p4.jpg	6	4.982609	103
56.3	6	1	p1.jpg	1	4.426894	103
65.8	6	5	p8.jpg	7	4.257954	103
76.4	6	1	p19.jpg	3	3.726775	103
87.4	6	5	p2.jpg	6	4.017608	103
96.1	6	1	p20.jpg	2	4.533032	103
108.2	6	1	p17.jpg	1	2.310628	103
118.4	6	1	p5.jpg	1	5.328683	103
126.4	6	5	p10.jpg	4	5.161734	103
136.3	6	1	p22.jpg	3	3.198184	103
146.1	6	5	p9.jpg	5	3.807012	103
157.1	6	5	p14.jpg	3	4.398487	103
167.3	6	5	p11.jpg	5	4.694179	103
176.4	6	5	p23.jpg	3	2.965662	103
184.5	6	1	p16.jpg	2	4.690288	103
195.8	6	5	p3.jpg	4	1.976269	103
207.1	6	1	p15.jpg	2	4.063563	103
215.5	6	1	p12.jpg	1	4.058588	103
224.3	6	1	p18.jpg	1	2.545515	103
233.4	6	1	p24.jpg	1	2.023663	103
3.1	6	5	c2.jpg	5	1.826818	105
14.7	6	5	c18.jpg	6	2.405797	105
23.2	6	1	c4.jpg	1	1.968911	105
31.6	6	1	c3.jpg	1	2.846444	105
42.9	6	5	c11.jpg	4	1.974131	105
50.9	6	1	c24.jpg	2	2.590044	105
61.9	6	5	c1.jpg	6	2.40216	105
73.9	6	5	c10.jpg	7	1.392236	105
82.7	6	5	c17.jpg	6	2.025271	105
92.9	6	5	c8.jpg	7	0.8305763	105
103.5	6	1	c20.jpg	1	1.894032	105
111.5	6	5	c21.jpg	6	1.387703	105
120.6	6	1	c12.jpg	1	1.501935	105
130.5	6	1	c7.jpg	1	2.578686	105
141.1	6	5	c6.jpg	6	1.973925	105
152	6	1	c15.jpg	2	1.92457	105
162.2	6	1	c9.jpg	2	2.430788	105
174.3	6	5	c19.jpg	4	2.047457	105
183.8	6	1	c22.jpg	3	2.105719	105
193.3	6	5	c16.jpg	7	1.437361	105
203.1	6	1	c14.jpg	2	2.835496	105
214.8	6	1	c23.jpg	2	2.341515	105
223.9	6	5	c13.jpg	6	1.57424	105
235.2	6	1	c5.jpg	1	2.413873	105
3.03	6	1	c9.jpg	3	2.659531	106
11.8	6	1	c20.jpg	2	2.043885	106
20.2	6	1	c22.jpg	3	2.968435	106
29.69	6	5	c19.jpg	5	1.924337	106
38.46	6	1	c24.jpg	2	1.77064	106
47.58	6	5	c21.jpg	4	2.249905	106
55.62	6	1	c4.jpg	4	2.957396	106
66.19	6	5	c18.jpg	4	1.496932	106
75.69	6	5	c8.jpg	5	1.771788	106
84.09	6	1	c14.jpg	2	1.327437	106
93.96	6	1	c3.jpg	2	1.656501	106
104.17	6	1	c15.jpg	2	2.056905	106
116.21	6	5	c11.jpg	5	2.283171	106
126.07	6	1	c7.jpg	2	1.006566	106
137.02	6	5	c13.jpg	2	1.734473	106
149.07	6	5	c1.jpg	2	2.953455	106
160.75	6	1	c5.jpg	3	2.134741	106
168.79	6	1	c12.jpg	3	2.853062	106
180.1	6	5	c6.jpg	4	2.307802	106
191.04	6	5	c10.jpg	5	1.695537	106
202.35	6	5	c17.jpg	2	1.159399	106
211.49	6	5	c2.jpg	4	1.145734	106
222.06	6	1	c23.jpg	1	1.821039	106
233.75	6	5	c16.jpg	3	1.859112	106
3.03	6	1	p3.jpg	1	2.789442	107
13.27	6	1	p13.jpg	3	2.772193	107
21.68	6	1	p2.jpg	3	2.020866	107
31.19	6	5	p17.jpg	2	4.106375	107
42.5	6	1	p10.jpg	6	1.988811	107
51.63	6	5	p21.jpg	4	2.96767	107
60.39	6	5	p22.jpg	5	2.013663	107
71.34	6	1	p23.jpg	3	3.126746	107
81.93	6	1	p7.jpg	2	3.473535	107
90.7	6	5	p24.jpg	4	1.799619	107
100.92	6	1	p11.jpg	2	2.639855	107
112.24	6	5	p15.jpg	1	3.396364	107
121.37	6	5	p18.jpg	3	2.125466	107
129.41	6	5	p1.jpg	3	2.716176	107
138.9	6	5	p12.jpg	3	1.731579	107
150.94	6	5	p20.jpg	4	3.270884	107
161.53	6	1	p8.jpg	3	3.163314	107
173.58	6	5	p19.jpg	5	3.124397	107
181.98	6	5	p5.jpg	5	2.038706	107
191.84	6	1	p9.jpg	2	2.310954	107
199.89	6	1	p4.jpg	2	1.976157	107
211.58	6	5	p16.jpg	3	2.807627	107
223.26	6	1	p6.jpg	3	2.239053	107
234.2	6	1	p14.jpg	2	3.191962	107
3.03	6	1	p18.jpg	1	2.539626	110
13.64	6	5	p3.jpg	2	2.074309	110
24.96	6	5	p6.jpg	4	2.957368	110
36.64	6	5	p14.jpg	3	2.301295	110
48.69	6	1	p24.jpg	2	1.593411	110
60.35	6	1	p21.jpg	3	2.234467	110
68.76	6	5	p7.jpg	2	3.040397	110
76.79	6	1	p20.jpg	4	2.174829	110
84.83	6	1	p16.jpg	3	1.962362	110
96.87	6	5	p13.jpg	2	2.299092	110
106.36	6	1	p17.jpg	4	1.736979	110
117.67	6	5	p9.jpg	4	2.081623	110
127.89	6	1	p5.jpg	1	1.996497	110
136.66	6	5	p23.jpg	2	1.229741	110
145.07	6	1	p19.jpg	2	3.27089	110
154.21	6	5	p11.jpg	3	3.96904	110
163.33	6	5	p4.jpg	2	2.915989	110
172.09	6	1	p15.jpg	2	3.475161	110
183.04	6	1	p1.jpg	1	4.182333	110
192.92	6	5	p2.jpg	2	4.049294	110
202.77	6	5	p8.jpg	3	2.472173	110
213.73	6	5	p10.jpg	3	1.910409	110
224.32	6	1	p22.jpg	5	3.411159	110
233.82	6	1	p12.jpg	2	1.605353	110
3.04	6	1	c2.jpg	4	2.195827	111
14	6	5	c14.jpg	4	2.662075	111
24.23	6	1	c17.jpg	2	1.75759	111
36.27	6	1	c11.jpg	1	1.783995	111
44.3	6	1	c6.jpg	2	1.506972	111
54.16	6	5	c7.jpg	5	2.031292	111
62.93	6	1	c21.jpg	3	2.125351	111
73.16	6	1	c1.jpg	4	1.810673	111
81.92	6	5	c24.jpg	6	1.552492	111
91.41	6	5	c20.jpg	6	1.780177	111
100.54	6	5	c23.jpg	7	1.817478	111
108.57	6	5	c15.jpg	5	1.469906	111
116.97	6	5	c5.jpg	4	2.400552	111
128.28	6	5	c12.jpg	7	1.623908	111
139.22	6	1	c18.jpg	2	1.898853	111
148.34	6	1	c8.jpg	2	1.389275	111
156.75	6	5	c3.jpg	5	1.93919	111
168.42	6	1	c13.jpg	2	1.924534	111
180.09	6	5	c4.jpg	6	2.0547	111
189.95	6	1	c19.jpg	2	2.158802	111
201.25	6	1	c10.jpg	4	1.905324	111
210.75	6	5	c22.jpg	6	1.481164	111
222.78	6	5	c9.jpg	7	0.9407412	111
233.37	6	1	c16.jpg	2	2.343084	111
3.032	6	1	p10.jpg	2	2.191687	112
14.366	6	5	p22.jpg	5	3.603519	112
22.411	6	5	p18.jpg	5	4.48217	112
31.547	6	5	p24.jpg	6	3.783973	112
41.776	6	5	p16.jpg	5	3.173959	112
53.812	6	1	p3.jpg	1	2.162958	112
64.756	6	1	p9.jpg	2	3.811426	112
76.793	6	1	p7.jpg	1	1.645108	112
85.202	6	5	p5.jpg	6	1.96927	112
93.967	6	1	p6.jpg	1	2.739971	112
103.459	6	1	p23.jpg	2	5.009459	112
115.136	6	1	p13.jpg	1	2.184135	112
124.272	6	1	p14.jpg	1	2.946387	112
134.863	6	5	p19.jpg	5	3.142172	112
146.552	6	1	p2.jpg	1	1.019709	112
156.421	6	5	p20.jpg	1	3.551752	112
167.742	6	5	p1.jpg	6	2.812772	112
177.24	6	5	p17.jpg	4	3.189014	112
185.653	6	1	p8.jpg	1	1.661682	112
195.881	6	5	p12.jpg	6	3.15825	112
206.47	6	5	p21.jpg	4	4.595285	112
217.417	6	5	p15.jpg	4	3.40578	112
227.28	6	1	p11.jpg	1	1.693805	112
235.331	6	1	p4.jpg	1	1.592204	112
3.03	6	5	p21.jpg	3	3.313186	113
13.99	6	5	p24.jpg	5	1.992525	113
22.77	6	1	p2.jpg	3	2.344517	113
30.82	6	1	p23.jpg	4	2.021336	113
39.22	6	1	p8.jpg	4	1.814596	113
48.73	6	5	p5.jpg	5	1.468762	113
56.76	6	1	p9.jpg	2	2.522144	113
68.81	6	5	p17.jpg	3	2.674696	113
78.31	6	1	p10.jpg	3	1.600997	113
88.9	6	1	p11.jpg	2	2.334135	113
100.58	6	1	p3.jpg	2	1.661229	113
111.89	6	5	p12.jpg	3	2.024338	113
122.48	6	1	p7.jpg	2	1.750566	113
131.26	6	1	p4.jpg	1	1.82356	113
142.21	6	5	p16.jpg	4	1.486966	113
152.44	6	5	p22.jpg	2	1.757109	113
163.75	6	1	p6.jpg	1	1.970564	113
173.98	6	1	p14.jpg	3	1.732091	113
183.11	6	5	p18.jpg	4	1.085397	113
191.52	6	5	p15.jpg	7	2.093402	113
201.38	6	5	p1.jpg	3	2.076688	113
213.42	6	1	p13.jpg	2	2.501475	113
223.28	6	5	p19.jpg	4	1.738541	113
234.97	6	5	p20.jpg	3	1.835148	113
3.03	6	5	c4.jpg	2	2.075098	114
14.35	6	1	c17.jpg	1	1.89328	114
25.3	6	5	c9.jpg	6	1.709688	114
33.34	6	1	c18.jpg	5	2.057297	114
44.65	6	5	c23.jpg	4	1.90188	114
54.13	6	5	c7.jpg	5	1.88434	114
62.53	6	5	c14.jpg	6	1.702352	114
72.75	6	1	c10.jpg	2	2.407925	114
82.96	6	5	c12.jpg	6	1.576855	114
94.64	6	1	c11.jpg	2	1.921663	114
106.68	6	1	c19.jpg	2	1.605169	114
116.18	6	5	c24.jpg	6	1.749948	114
127.13	6	1	c2.jpg	1	1.888091	114
138.8	6	1	c21.jpg	2	1.883577	114
147.94	6	5	c3.jpg	7	1.462245	114
156.71	6	1	c6.jpg	3	2.187001	114
164.75	6	1	c16.jpg	4	1.746621	114
174.6	6	5	c20.jpg	6	1.175785	114
186.64	6	1	c13.jpg	1	2.312073	114
195.41	6	5	c22.jpg	5	1.774448	114
205.27	6	1	c1.jpg	1	1.717168	114
215.85	6	5	c15.jpg	6	1.410788	114
224.98	6	5	c5.jpg	5	1.541959	114
235.56	6	1	c8.jpg	2	1.955473	114
3.024	6	1	c8.jpg	1	1.419721	115
11.808	6	5	c20.jpg	5	2.614213	115
22.021	6	1	c10.jpg	2	2.318602	115
31.514	6	5	c22.jpg	6	1.561034	115
43.185	6	5	c15.jpg	7	3.014191	115
53.049	6	1	c2.jpg	1	2.177421	115
64.724	6	5	c12.jpg	6	1.898684	115
73.857	6	1	c11.jpg	1	2.596255	115
82.989	6	5	c9.jpg	6	2.351717	115
93.568	6	5	c7.jpg	3	2.021452	115
103.061	6	1	c16.jpg	1	1.891429	115
112.917	6	5	c4.jpg	4	2.735608	115
121.675	6	5	c5.jpg	7	2.449437	115
132.999	6	1	c1.jpg	3	2.041043	115
141.401	6	5	c14.jpg	5	2.680654	115
153.45	6	1	c18.jpg	1	2.589226	115
163.689	6	5	c3.jpg	6	1.622207	115
174.637	6	1	c13.jpg	3	3.060976	115
186.671	6	1	c19.jpg	2	2.190305	115
197.259	6	1	c17.jpg	1	0.9819912	115
205.294	6	5	c24.jpg	5	1.550571	115
213.339	6	1	c6.jpg	1	1.285395	115
224.648	6	5	c23.jpg	6	2.151295	115
233.041	6	1	c21.jpg	1	1.532561	115
3.031	6	1	p11.jpg	1	3.215377	116
13.271	6	5	p15.jpg	3	2.922809	116
24.225	6	5	p20.jpg	3	3.044591	116
36.268	6	1	p9.jpg	2	1.82554	116
47.581	6	1	p2.jpg	1	1.310146	116
59.257	6	1	p13.jpg	1	1.762415	116
67.293	6	5	p5.jpg	3	2.638186	116
78.972	6	1	p3.jpg	1	1.555486	116
89.93	6	5	p18.jpg	3	2.075034	116
99.787	6	5	p24.jpg	3	3.445097	116
108.188	6	1	p4.jpg	1	2.988762	116
118.771	6	1	p7.jpg	2	2.618175	116
130.807	6	5	p21.jpg	4	1.982653	116
141.397	6	5	p12.jpg	4	1.082105	116
152.711	6	1	p6.jpg	3	1.588202	116
161.84	6	1	p14.jpg	2	2.096502	116
170.238	6	1	p10.jpg	3	2.063152	116
179.737	6	5	p19.jpg	3	1.386654	116
189.248	6	5	p22.jpg	3	2.198232	116
199.469	6	5	p16.jpg	4	1.922054	116
208.602	6	1	p8.jpg	3	1.957316	116
218.463	6	1	p23.jpg	2	3.345429	116
227.242	6	5	p1.jpg	4	1.967071	116
236.007	6	5	p17.jpg	4	2.377099	116
3	6	5	c4.jpg	5	2.836884	118
13.2	6	1	c10.jpg	4	1.650282	118
24.9	6	5	c22.jpg	4	1.976802	118
36.2	6	5	c23.jpg	6	1.680005	118
44.2	6	1	c17.jpg	1	1.100798	118
54.5	6	1	c19.jpg	1	1.760413	118
63.6	6	5	c12.jpg	4	2.330574	118
75.6	6	1	c18.jpg	2	2.206128	118
83.7	6	1	c16.jpg	1	1.793351	118
92.4	6	1	c21.jpg	1	1.622041	118
102.3	6	1	c6.jpg	1	1.703146	118
110.7	6	5	c15.jpg	7	1.272558	118
120.2	6	1	c13.jpg	1	1.803279	118
131.1	6	5	c9.jpg	4	1.995953	118
142.1	6	5	c20.jpg	6	1.607887	118
150.8	6	1	c8.jpg	1	1.313206	118
161.4	6	5	c7.jpg	4	2.725026	118
170.5	6	5	c14.jpg	7	1.840657	118
182.2	6	1	c11.jpg	2	1.444349	118
193.5	6	1	c1.jpg	1	2.578604	118
205.6	6	5	c24.jpg	2	1.594335	118
216.2	6	1	c2.jpg	1	1.474736	118
225.7	6	5	c5.jpg	6	1.83099	118
235.5	6	5	c3.jpg	7	1.425937	118
3.03	6	1	p1.jpg	1	1.818663	120
11.44	6	5	p13.jpg	3	4.758969	120
20.94	6	5	p6.jpg	7	2.541588	120
31.89	6	5	p4.jpg	7	1.32012	120
43.57	6	1	p5.jpg	3	1.660774	120
52.33	6	5	p9.jpg	5	1.753864	120
61.46	6	1	p12.jpg	3	1.94954	120
70.6	6	5	p8.jpg	4	2.036507	120
81.91	6	1	p21.jpg	3	1.547165	120
92.14	6	5	p14.jpg	6	2.404279	120
100.55	6	1	p16.jpg	2	2.018033	120
111.88	6	1	p15.jpg	2	1.641506	120
119.91	6	5	p11.jpg	5	2.416897	120
130.5	6	1	p18.jpg	1	2.122676	120
141.45	6	5	p2.jpg	7	3.295363	120
150.22	6	5	p10.jpg	4	1.992143	120
160.44	6	1	p17.jpg	2	1.72342	120
169.93	6	1	p24.jpg	2	2.369397	120
179.79	6	5	p7.jpg	7	3.320273	120
187.84	6	5	p23.jpg	7	1.738882	120
199.87	6	1	p19.jpg	1	3.040778	120
210.47	6	1	p20.jpg	2	2.796856	120
222.51	6	1	p22.jpg	2	3.337321	120
234.18	6	5	p3.jpg	7	1.262099	120
3	6	1	c1.jpg	4	5.059192	121
13.3	6	1	c18.jpg	3	2.497336	121
24.2	6	5	c23.jpg	2	2.505502	121
34.8	6	1	c21.jpg	1	5.073348	121
46.8	6	1	c17.jpg	2	2.913595	121
55.2	6	5	c3.jpg	2	2.399811	121
66.2	6	1	c2.jpg	3	3.529726	121
76	6	1	c16.jpg	2	2.525467	121
87.7	6	5	c7.jpg	3	4.614636	121
99.4	6	5	c5.jpg	4	4.947891	121
107.4	6	5	c4.jpg	4	1.955977	121
116.2	6	1	c10.jpg	3	2.242169	121
125.3	6	1	c19.jpg	3	4.900463	121
133.3	6	1	c6.jpg	2	2.518576	121
142.8	6	5	c22.jpg	3	2.770624	121
153	6	1	c13.jpg	2	2.891626	121
161.8	6	5	c20.jpg	3	4.506748	121
173.8	6	5	c14.jpg	4	2.483035	121
183.3	6	5	c15.jpg	4	2.676159	121
193.2	6	1	c8.jpg	2	3.939925	121
203.7	6	5	c12.jpg	4	2.597319	121
212.9	6	5	c9.jpg	3	3.328105	121
221.3	6	1	c11.jpg	3	4.894497	121
232.6	6	5	c24.jpg	3	4.786216	121
3	6	1	c8.jpg	1	3.083723	122
14.4	6	5	c9.jpg	5	4.076212	122
25.3	6	5	c23.jpg	3	3.960186	122
37	6	5	c24.jpg	6	2.380018	122
46.5	6	1	c10.jpg	1	1.09605	122
54.9	6	1	c11.jpg	1	1.761449	122
64	6	5	c22.jpg	7	3.24115	122
73.1	6	5	c20.jpg	7	2.32776	122
81.2	6	1	c21.jpg	1	2.024983	122
91.8	6	5	c3.jpg	3	1.750556	122
102	6	1	c6.jpg	2	1.702709	122
113.7	6	1	c2.jpg	1	1.840203	122
125.7	6	5	c4.jpg	5	1.606688	122
137.7	6	1	c16.jpg	1	1.348872	122
147.2	6	5	c15.jpg	4	2.657955	122
157.1	6	1	c13.jpg	1	1.867319	122
165.1	6	1	c19.jpg	1	1.114109	122
176	6	5	c12.jpg	3	1.9211	122
184.5	6	1	c1.jpg	1	2.199204	122
193.2	6	1	c17.jpg	1	1.082215	122
203.1	6	5	c5.jpg	4	2.231494	122
214.4	6	5	c7.jpg	3	2.842248	122
223.1	6	5	c14.jpg	5	1.541225	122
233.7	6	1	c18.jpg	2	1.610422	122
3	6	5	p7.jpg	2	2.748111	123
14.7	6	1	p22.jpg	4	1.992175	123
24.2	6	5	p3.jpg	5	3.200943	123
32.6	6	1	p1.jpg	1	3.60264	123
42.5	6	5	p6.jpg	4	2.209395	123
53.8	6	1	p21.jpg	3	2.437648	123
65.8	6	1	p16.jpg	2	3.395587	123
74.6	6	5	p8.jpg	6	1.959481	123
82.6	6	5	p11.jpg	6	1.786652	123
92.5	6	1	p15.jpg	2	2.591051	123
102.7	6	5	p23.jpg	2	2.619585	123
111.4	6	1	p5.jpg	1	2.619038	123
119.8	6	5	p14.jpg	6	2.16679	123
130.1	6	1	p12.jpg	3	2.64893	123
141.7	6	1	p17.jpg	4	1.88579	123
152.7	6	1	p19.jpg	2	2.503573	123
164	6	1	p24.jpg	3	1.902048	123
172	6	1	p18.jpg	4	2.189279	123
181.2	6	5	p13.jpg	7	2.155191	123
190.6	6	5	p9.jpg	7	1.617402	123
201.6	6	5	p4.jpg	7	1.155051	123
210.7	6	1	p20.jpg	5	2.670486	123
221.3	6	5	p2.jpg	6	2.98271	123
233.3	6	5	p10.jpg	7	2.933643	123
3.1	6	5	p5.jpg	5	3.051741	124
14.8	6	5	p20.jpg	3	1.475967	124
25	6	1	p14.jpg	1	2.256676	124
34.5	6	1	p7.jpg	1	1.469233	124
45.1	6	5	p21.jpg	6	2.069537	124
56	6	1	p6.jpg	4	2.318408	124
65.9	6	1	p8.jpg	2	1.888257	124
74.3	6	5	p19.jpg	4	1.852477	124
85.6	6	1	p2.jpg	1	2.560921	124
94.4	6	1	p10.jpg	4	1.655068	124
105.7	6	5	p16.jpg	6	1.890234	124
114.8	6	5	p1.jpg	6	2.266708	124
123.6	6	5	p18.jpg	7	2.237092	124
135.6	6	1	p4.jpg	1	2.369532	124
147.3	6	5	p24.jpg	5	2.863762	124
156.8	6	1	p11.jpg	3	3.254969	124
165.9	6	5	p12.jpg	3	1.458181	124
176.5	6	5	p22.jpg	6	3.373715	124
184.9	6	1	p23.jpg	3	1.885232	124
196.9	6	1	p9.jpg	2	1.509884	124
207.9	6	5	p17.jpg	4	1.98661	124
217.7	6	1	p3.jpg	1	1.924885	124
227.9	6	1	p13.jpg	2	2.558164	124
236	6	5	p15.jpg	5	2.220228	124
3.02	6	5	c24.jpg	6	4.999595	125
11.44	6	1	c11.jpg	1	3.232819	125
20.57	6	1	c16.jpg	1	2.531146	125
30.06	6	1	c18.jpg	1	2.74904	125
38.46	6	5	c15.jpg	6	2.65088	125
48.31	6	1	c8.jpg	2	2.873677	125
59.61	6	1	c19.jpg	1	2.539784	125
67.64	6	1	c10.jpg	2	2.788599	125
77.85	6	1	c6.jpg	1	3.423205	125
87.7	6	1	c13.jpg	2	2.107784	125
99.74	6	1	c17.jpg	1	3.976857	125
108.5	6	5	c9.jpg	5	3.153299	125
120.55	6	1	c1.jpg	2	2.147086	125
131.13	6	5	c14.jpg	6	2.933139	125
139.9	6	1	c2.jpg	2	2.081445	125
151.57	6	5	c7.jpg	4	3.19957	125
162.51	6	5	c12.jpg	6	4.288621	125
172.74	6	5	c5.jpg	5	3.383725	125
180.77	6	5	c4.jpg	5	2.476453	125
189.89	6	1	c21.jpg	2	4.232937	125
200.84	6	5	c20.jpg	5	4.337577	125
212.14	6	5	c22.jpg	5	3.459779	125
222.73	6	5	c3.jpg	5	2.195634	125
232.22	6	5	c23.jpg	4	5.39545	125
3	6	1	p14.jpg	1	2.876757	126
11.1	6	5	p19.jpg	6	1.918195	126
19.5	6	1	p9.jpg	1	2.539376	126
30.1	6	1	p4.jpg	1	1.955496	126
38.8	6	1	p11.jpg	2	1.08656	126
48.3	6	1	p3.jpg	1	2.640429	126
57.5	6	5	p21.jpg	3	2.532651	126
67.3	6	1	p7.jpg	1	2.162181	126
78.3	6	5	p18.jpg	5	1.562844	126
89.2	6	5	p1.jpg	6	2.195872	126
98	6	5	p15.jpg	6	1.592639	126
108.6	6	5	p24.jpg	2	2.559627	126
120.3	6	5	p20.jpg	6	2.755983	126
128.3	6	5	p5.jpg	5	1.474744	126
138.5	6	1	p8.jpg	3	2.971307	126
150.2	6	5	p17.jpg	6	2.313846	126
159.7	6	5	p22.jpg	1	2.001089	126
168.8	6	5	p16.jpg	6	1.722095	126
180.1	6	1	p13.jpg	1	2.682782	126
191.4	6	5	p12.jpg	3	3.03017	126
203.5	6	1	p23.jpg	1	3.291318	126
213.7	6	1	p6.jpg	1	3.07595	126
222.1	6	1	p2.jpg	3	2.024751	126
232	6	1	p10.jpg	4	2.399066	126
3.03	6	5	c11.jpg	6	2.199354	127
13.27	6	5	c17.jpg	6	1.250015	127
24.58	6	5	c21.jpg	6	1.838292	127
32.98	6	1	c20.jpg	1	1.113166	127
43.56	6	5	c8.jpg	6	1.594089	127
53.05	6	1	c24.jpg	1	1.11887	127
65.09	6	1	c22.jpg	1	1.627435	127
73.85	6	1	c15.jpg	1	2.028964	127
84.8	6	1	c12.jpg	1	1.579245	127
96.11	6	5	c16.jpg	5	1.553305	127
104.14	6	1	c5.jpg	2	2.09229	127
113.27	6	5	c13.jpg	6	1.286243	127
123.85	6	5	c6.jpg	6	1.822104	127
133.71	6	1	c23.jpg	4	1.993282	127
143.22	6	1	c3.jpg	2	1.918933	127
151.26	6	5	c10.jpg	1	1.222245	127
162.21	6	1	c14.jpg	1	1.165531	127
172.43	6	1	c4.jpg	2	1.730636	127
182.29	6	5	c2.jpg	3	1.712532	127
191.42	6	5	c18.jpg	5	1.623786	127
203.09	6	1	c9.jpg	1	1.537375	127
211.5	6	5	c1.jpg	1	2.386507	127
220.27	6	5	c19.jpg	2	2.261565	127
232.31	6	1	c7.jpg	1	1.771067	127
3	6	5	p6.jpg	3	3.559302	128
13.9	6	1	p15.jpg	1	2.686952	128
26	6	5	p2.jpg	4	2.372072	128
35.8	6	5	p7.jpg	6	1.710411	128
47.5	6	1	p19.jpg	2	2.740904	128
56.3	6	1	p17.jpg	2	2.499372	128
64.7	6	1	p21.jpg	3	1.878388	128
73.8	6	5	p13.jpg	7	2.179339	128
83	6	1	p12.jpg	1	3.746211	128
93.2	6	5	p23.jpg	1	2.740461	128
103.4	6	1	p1.jpg	5	2.249797	128
111.5	6	1	p20.jpg	2	1.884764	128
121.3	6	5	p3.jpg	7	1.935897	128
129.3	6	5	p8.jpg	7	1.791095	128
140.7	6	5	p4.jpg	5	2.745471	128
151.3	6	1	p24.jpg	2	3.623749	128
160.7	6	5	p11.jpg	6	1.830187	128
169.1	6	5	p10.jpg	3	2.887388	128
177.9	6	5	p14.jpg	5	2.358937	128
187.4	6	1	p22.jpg	2	3.996874	128
199.1	6	5	p9.jpg	6	2.336134	128
211.1	6	1	p5.jpg	1	2.320018	128
222.1	6	1	p16.jpg	1	2.370149	128
232.7	6	1	p18.jpg	1	3.296055	128
3.028	6	5	p13.jpg	7	2.722873	131
11.823	6	5	p11.jpg	5	2.745192	131
23.877	6	1	p19.jpg	1	2.440846	131
34.466	6	1	p22.jpg	3	4.936215	131
43.601	6	5	p23.jpg	1	2.389077	131
54.187	6	1	p21.jpg	1	1.789369	131
64.414	6	5	p2.jpg	6	2.966953	131
75.731	6	1	p20.jpg	1	4.363572	131
85.597	6	5	p6.jpg	1	1.489407	131
94.737	6	5	p4.jpg	1	1.75535	131
105.696	6	1	p24.jpg	1	2.389411	131
114.097	6	5	p3.jpg	5	3.134898	131
124.318	6	5	p7.jpg	4	2.656053	131
132.368	6	5	p8.jpg	7	1.511727	131
140.781	6	5	p9.jpg	6	2.861153	131
150.65	6	1	p17.jpg	2	4.19454	131
160.149	6	1	p18.jpg	1	1.758566	131
168.908	6	1	p15.jpg	1	2.222823	131
180.228	6	1	p12.jpg	1	3.261472	131
191.18	6	5	p14.jpg	3	5.189123	131
200.678	6	5	p10.jpg	5	2.556469	131
212.353	6	1	p1.jpg	2	3.644719	131
224.391	6	1	p16.jpg	1	1.515815	131
232.436	6	1	p5.jpg	1	4.498254	131
3.1	6	1	c12.jpg	3	2.201014	132
11.9	6	5	c18.jpg	6	2.227347	132
21	6	5	c10.jpg	7	1.891915	132
30.8	6	1	c20.jpg	4	2.257969	132
41.4	6	5	c8.jpg	6	1.895309	132
52	6	1	c4.jpg	3	2.640299	132
61.1	6	5	c16.jpg	5	2.629407	132
69.5	6	1	c7.jpg	2	2.049596	132
79	6	1	c14.jpg	4	2.441987	132
91.1	6	1	c15.jpg	1	2.937066	132
102	6	5	c17.jpg	5	2.177308	132
112.9	6	1	c22.jpg	4	2.169916	132
121	6	1	c24.jpg	3	2.979686	132
132.3	6	5	c1.jpg	5	1.505549	132
142.5	6	5	c13.jpg	5	2.835811	132
153.8	6	5	c11.jpg	6	2.704484	132
161.9	6	5	c21.jpg	6	2.52315	132
173.9	6	5	c2.jpg	5	1.256022	132
182.7	6	1	c9.jpg	2	2.921479	132
191.1	6	1	c23.jpg	1	1.07918	132
200.9	6	1	c3.jpg	2	1.983077	132
212.6	6	5	c19.jpg	6	2.455767	132
224.3	6	1	c5.jpg	2	1.673587	132
234.5	6	5	c6.jpg	5	1.865982	132
3.023	6	5	c10.jpg	1	2.580443	134
13.267	6	5	c2.jpg	5	2.764148	134
23.849	6	1	c22.jpg	2	5.309006	134
31.905	6	5	c1.jpg	4	2.433845	134
43.941	6	5	c11.jpg	6	2.614943	134
53.072	6	5	c21.jpg	5	2.034089	134
64.741	6	1	c23.jpg	1	4.276695	134
76.054	6	5	c6.jpg	NA	NA	134
85.54	6	5	c18.jpg	6	1.741899	134
96.846	6	1	c20.jpg	4	5.149839	134
105.24	6	1	c15.jpg	4	2.278519	134
114.722	6	5	c19.jpg	4	3.942412	134
123.486	6	1	c24.jpg	1	2.612897	134
133.712	6	1	c3.jpg	2	3.097618	134
142.837	6	1	c7.jpg	2	1.075895	134
153.784	6	1	c14.jpg	4	2.554666	134
165.815	6	1	c5.jpg	1	3.51315	134
174.574	6	5	c8.jpg	5	2.379856	134
184.429	6	1	c12.jpg	2	2.745789	134
196.101	6	5	c17.jpg	3	4.772459	134
204.134	6	5	c16.jpg	3	1.966421	134
215.083	6	1	c9.jpg	2	2.267065	134
224.931	6	5	c13.jpg	2	1.29832	134
233.329	6	1	c4.jpg	3	2.571921	134
3	6	5	c20.jpg	3	3.515862	135
11.4	6	5	c15.jpg	6	2.194971	135
22	6	1	c17.jpg	5	2.258304	135
31.1	6	5	c12.jpg	2	2.325072	135
40.2	6	1	c18.jpg	5	1.849845	135
51.2	6	5	c22.jpg	3	2.716751	135
60.7	6	5	c3.jpg	5	2.588847	135
70.9	6	1	c11.jpg	3	2.643719	135
80.7	6	1	c13.jpg	5	1.770677	135
92.8	6	5	c24.jpg	2	3.030468	135
100.8	6	5	c9.jpg	4	2.856786	135
111.8	6	1	c21.jpg	5	2.454149	135
121.2	6	1	c10.jpg	6	2.924963	135
132.9	6	5	c5.jpg	2	2.477203	135
145	6	1	c16.jpg	5	3.348706	135
153.7	6	5	c23.jpg	3	3.473048	135
165.4	6	1	c6.jpg	5	1.872264	135
176	6	1	c1.jpg	3	3.820119	135
187.3	6	5	c14.jpg	4	2.615301	135
197.2	6	1	c19.jpg	4	1.839576	135
205.5	6	1	c8.jpg	2	2.595778	135
213.6	6	5	c4.jpg	3	2.087839	135
224.9	6	1	c2.jpg	5	2.388817	135
235.1	6	5	c7.jpg	3	2.008972	135
3.034	6	1	p23.jpg	3	1.742973	136
14.004	6	1	p7.jpg	1	2.208027	136
24.597	6	5	p19.jpg	5	1.875256	136
35.188	6	1	p8.jpg	1	3.268173	136
46.5	6	1	p4.jpg	1	1.418566	136
56.727	6	5	p22.jpg	4	2.211664	136
65.129	6	1	p13.jpg	1	1.460348	136
74.996	6	5	p20.jpg	5	1.992757	136
86.31	6	1	p11.jpg	2	1.400919	136
94.719	6	5	p1.jpg	6	2.166	136
104.949	6	1	p10.jpg	5	1.785629	136
116.626	6	1	p14.jpg	2	1.900112	136
125.393	6	5	p24.jpg	3	1.423463	136
133.436	6	1	p2.jpg	1	1.077944	136
141.471	6	5	p21.jpg	4	2.094753	136
153.513	6	5	p5.jpg	5	1.727025	136
164.471	6	5	p12.jpg	6	1.985511	136
174.338	6	5	p17.jpg	4	2.250968	136
183.835	6	1	p3.jpg	1	2.349426	136
193.332	6	5	p18.jpg	4	2.489369	136
202.094	6	1	p9.jpg	2	2.149096	136
214.129	6	5	p15.jpg	4	2.724585	136
223.259	6	1	p6.jpg	2	1.419862	136
232.388	6	5	p16.jpg	4	1.935733	136
3.03	6	1	p20.jpg	1	3.655457	142
12.54	6	5	p13.jpg	5	1.7354	142
20.59	6	1	p5.jpg	2	1.923926	142
30.81	6	1	p19.jpg	2	1.505869	142
39.22	6	1	p1.jpg	1	1.692047	142
50.17	6	1	p24.jpg	5	1.634973	142
58.93	6	5	p9.jpg	4	1.726612	142
69.15	6	5	p7.jpg	6	2.016149	142
77.56	6	1	p18.jpg	3	2.705407	142
86.68	6	1	p15.jpg	1	2.407261	142
98.36	6	1	p22.jpg	2	2.403228	142
110.4	6	5	p6.jpg	4	1.971538	142
119.52	6	1	p21.jpg	1	1.654336	142
130.83	6	1	p12.jpg	2	2.418637	142
138.87	6	5	p23.jpg	3	2.10598	142
150.56	6	5	p4.jpg	4	1.490304	142
162.6	6	1	p16.jpg	2	1.426886	142
173.18	6	5	p8.jpg	5	1.677857	142
184.13	6	5	p3.jpg	6	1.317521	142
192.91	6	5	p11.jpg	7	2.436426	142
204.22	6	5	p10.jpg	5	1.855607	142
213.72	6	5	p14.jpg	5	1.715768	142
224.3	6	1	p17.jpg	3	2.243432	142
234.16	6	5	p2.jpg	6	2.620395	142
3	6	5	c8.jpg	5	1.781535	143
11.8	6	5	c11.jpg	4	2.271769	143
20.2	6	5	c19.jpg	3	2.119017	143
30.8	6	1	c22.jpg	2	2.418791	143
41.7	6	1	c24.jpg	1	1.175739	143
49.8	6	5	c2.jpg	2	2.355089	143
61.8	6	1	c3.jpg	2	3.114927	143
71.7	6	1	c23.jpg	3	2.149466	143
83	6	1	c5.jpg	1	4.96157	143
95	6	1	c7.jpg	2	1.548745	143
103.8	6	1	c9.jpg	1	1.898616	143
113.2	6	5	c16.jpg	5	4.246509	143
123.1	6	5	c13.jpg	5	1.866472	143
133.3	6	1	c4.jpg	3	2.332748	143
143.5	6	5	c18.jpg	4	3.214327	143
151.6	6	1	c12.jpg	3	3.413878	143
160	6	5	c17.jpg	5	3.911669	143
169.5	6	1	c20.jpg	1	1.168726	143
178.6	6	5	c1.jpg	2	2.50173	143
187.7	6	5	c10.jpg	6	1.354376	143
199.4	6	1	c14.jpg	2	3.241474	143
211.1	6	1	c15.jpg	2	2.013694	143
221.6	6	5	c6.jpg	6	1.987188	143
232.6	6	5	c21.jpg	5	1.398449	143
3.1	6	1	p9.jpg	4	3.874097	144
15.1	6	1	p23.jpg	2	3.923585	144
23.9	6	1	p4.jpg	3	4.416413	144
31.9	6	5	p16.jpg	6	2.293959	144
40	6	5	p21.jpg	4	5.09762	144
50.2	6	5	p12.jpg	3	3.157597	144
59.7	6	5	p19.jpg	4	2.20222	144
71.7	6	5	p22.jpg	3	5.663797	144
80.8	6	1	p7.jpg	2	2.78647	144
90.3	6	1	p14.jpg	3	5.060962	144
100.2	6	5	p24.jpg	6	2.895349	144
111.5	6	1	p3.jpg	4	5.421855	144
121.7	6	5	p5.jpg	3	2.595215	144
130.5	6	1	p13.jpg	2	2.99159	144
138.9	6	5	p20.jpg	2	4.394218	144
149.5	6	1	p10.jpg	3	2.507102	144
160.1	6	1	p2.jpg	NA	NA	144
171.8	6	5	p1.jpg	2	1.643495	144
182.7	6	5	p17.jpg	4	3.939276	144
191.1	6	5	p15.jpg	4	1.78276	144
202.8	6	5	p18.jpg	4	2.147202	144
212.6	6	1	p11.jpg	1	4.532822	144
221.8	6	1	p8.jpg	2	3.263407	144
233.1	6	1	p6.jpg	3	2.392079	144
3.03	6	5	c17.jpg	6	1.838945	146
12.92	6	1	c3.jpg	1	2.454324	146
24.59	6	1	c23.jpg	5	1.971522	146
35.54	6	1	c14.jpg	2	2.614702	146
46.12	6	5	c18.jpg	1	1.836741	146
55.24	6	1	c9.jpg	3	2.799591	146
65.11	6	5	c2.jpg	4	1.980715	146
75.32	6	1	c22.jpg	2	1.723261	146
87.35	6	1	c24.jpg	6	1.596642	146
98.66	6	5	c8.jpg	6	3.086137	146
107.05	6	1	c5.jpg	4	2.348714	146
116.18	6	1	c20.jpg	3	2.444307	146
125.67	6	1	c7.jpg	2	2.958984	146
134.43	6	5	c19.jpg	5	1.469132	146
145.38	6	1	c15.jpg	1	2.475061	146
153.77	6	5	c10.jpg	5	2.759289	146
165.82	6	5	c1.jpg	2	2.600687	146
175.31	6	5	c11.jpg	7	1.115122	146
184.07	6	5	c16.jpg	5	1.311951	146
194.65	6	5	c13.jpg	2	2.320273	146
206.33	6	5	c21.jpg	4	3.279106	146
214.36	6	1	c12.jpg	3	3.884749	146
224.57	6	1	c4.jpg	1	1.826192	146
232.61	6	5	c6.jpg	6	1.422344	146
3.1	6	1	c10.jpg	2	3.004822	147
11.5	6	1	c11.jpg	4	2.90637	147
21.3	6	5	c5.jpg	3	2.825706	147
32.3	6	1	c8.jpg	2	4.051226	147
41.4	6	1	c17.jpg	1	5.657341	147
52.7	6	1	c1.jpg	4	2.510212	147
64.4	6	1	c13.jpg	3	4.879939	147
73.1	6	5	c23.jpg	6	2.313284	147
85.2	6	1	c18.jpg	4	2.954449	147
94.7	6	5	c15.jpg	4	2.091903	147
103.1	6	1	c21.jpg	2	3.029047	147
113.6	6	5	c4.jpg	4	2.943686	147
124.9	6	5	c9.jpg	2	2.82223	147
133.7	6	5	c3.jpg	5	1.12211	147
142.8	6	5	c22.jpg	4	3.592151	147
153.4	6	5	c24.jpg	6	3.7588	147
162.9	6	1	c6.jpg	2	4.746957	147
174.9	6	1	c19.jpg	1	4.379538	147
183	6	5	c20.jpg	4	5.655133	147
191	6	5	c12.jpg	4	4.138267	147
202.7	6	5	c7.jpg	5	3.976237	147
212.5	6	1	c2.jpg	2	5.111807	147
223.5	6	1	c16.jpg	1	2.581699	147
233.7	6	5	c14.jpg	5	4.684309	147
3.028	6	1	p23.jpg	5	2.655165	149
13.996	6	5	p17.jpg	6	3.088157	149
24.583	6	5	p18.jpg	1	3.644269	149
34.075	6	5	p22.jpg	2	3.501586	149
44.294	6	5	p16.jpg	NA	NA	149
55.965	6	5	p15.jpg	1	4.053381	149
64.362	6	5	p1.jpg	3	3.112119	149
76.4	6	5	p21.jpg	2	2.652609	149
84.438	6	5	p5.jpg	1	2.756987	149
93.212	6	1	p13.jpg	1	3.201643	149
102.709	6	1	p4.jpg	2	2.819309	149
113.295	6	1	p10.jpg	2	3.00833	149
123.516	6	1	p7.jpg	1	2.513155	149
132.286	6	1	p14.jpg	1	2.520996	149
144.323	6	5	p12.jpg	4	3.393477	149
154.18	6	5	p20.jpg	2	3.739909	149
165.499	6	1	p11.jpg	1	2.458679	149
177.181	6	1	p9.jpg	1	2.849599	149
186.309	6	1	p3.jpg	2	1.837275	149
197.62	6	1	p8.jpg	1	1.996591	149
207.483	6	1	p6.jpg	1	2.661018	149
215.522	6	5	p24.jpg	2	2.612803	149
226.465	6	5	p19.jpg	1	3.577204	149
235.592	6	1	p2.jpg	1	2.036493	149
3.1	6	1	c8.jpg	2	1.651919	151
11.8	6	5	c12.jpg	4	1.678078	151
21.3	6	1	c21.jpg	2	1.421295	151
33	6	1	c16.jpg	1	3.003235	151
43.2	6	1	c10.jpg	1	1.562954	151
51.3	6	5	c14.jpg	3	1.217903	151
60.4	6	5	c20.jpg	6	1.261467	151
70.3	6	5	c5.jpg	5	1.236865	151
78.3	6	1	c2.jpg	1	1.44466	151
87.4	6	1	c17.jpg	2	1.521354	151
96.9	6	5	c15.jpg	3	1.654406	151
105.3	6	1	c1.jpg	1	1.887367	151
113.7	6	1	c6.jpg	1	1.52109	151
124.3	6	5	c23.jpg	3	1.539079	151
135.6	6	5	c3.jpg	6	1.999455	151
146.2	6	5	c7.jpg	6	1.427864	151
157.2	6	1	c18.jpg	4	1.615772	151
169.2	6	5	c22.jpg	6	1.343179	151
179.4	6	1	c13.jpg	2	1.892837	151
189.3	6	5	c9.jpg	2	1.012321	151
200.9	6	5	c4.jpg	3	1.030413	151
213	6	1	c11.jpg	1	2.086855	151
223.9	6	5	c24.jpg	4	1.527129	151
232.7	6	1	c19.jpg	1	2.505796	151
3.03	6	5	p8.jpg	5	3.487177	152
15.09	6	1	p16.jpg	1	2.994982	152
26.4	6	1	p20.jpg	4	3.704582	152
35.9	6	5	p11.jpg	5	2.529354	152
44.66	6	1	p18.jpg	3	2.802686	152
55.61	6	5	p14.jpg	7	1.72517	152
63.64	6	1	p19.jpg	6	5.330898	152
71.68	6	5	p2.jpg	5	2.956426	152
83	6	1	p5.jpg	2	2.05997	152
95.05	6	1	p17.jpg	NA	NA	152
104.18	6	1	p24.jpg	5	1.057131	152
112.95	6	5	p3.jpg	7	2.429581	152
124.63	6	5	p6.jpg	3	1.376222	152
133.76	6	1	p1.jpg	5	3.076831	152
143.99	6	5	p23.jpg	5	1.172755	152
154.58	6	1	p12.jpg	3	2.102728	152
164.47	6	5	p7.jpg	7	1.445788	152
172.88	6	5	p13.jpg	3	5.160318	152
182.38	6	5	p4.jpg	6	4.209064	152
192.23	6	5	p10.jpg	4	2.643997	152
203.18	6	1	p15.jpg	3	4.582496	152
213.76	6	1	p21.jpg	5	3.129553	152
225.44	6	1	p22.jpg	6	1.288762	152
233.85	6	5	p9.jpg	5	5.202958	152
3.02	6	1	c14.jpg	4	0.8707225	153
11.44	6	1	c4.jpg	5	1.850259	153
23.48	6	1	c9.jpg	4	0.7164673	153
32.6	6	1	c7.jpg	1	3.52596	153
44.28	6	1	c24.jpg	5	1.614331	153
54.12	6	5	c13.jpg	5	0.4587241	153
66.15	6	5	c16.jpg	4	1.066128	153
76.38	6	1	c20.jpg	1	2.239023	153
85.14	6	5	c10.jpg	1	3.406907	153
93.18	6	5	c11.jpg	6	3.430629	153
103.04	6	5	c1.jpg	5	1.875016	153
114.35	6	5	c8.jpg	5	1.927536	153
125.3	6	1	c12.jpg	7	5.358075	153
134.79	6	1	c15.jpg	4	4.61E-04	153
145.01	6	5	c18.jpg	6	2.535858	153
156.7	6	1	c3.jpg	3	2.084204	153
164.74	6	5	c2.jpg	5	2.142156	153
173.87	6	1	c23.jpg	5	1.387086	153
184.81	6	5	c17.jpg	4	1.236738	153
195.38	6	1	c22.jpg	7	3.1767	153
205.96	6	5	c19.jpg	5	2.692391	153
214.73	6	1	c5.jpg	4	1.499414	153
226.03	6	5	c21.jpg	4	1.499117	153
234.43	6	5	c6.jpg	7	3.075415	153
3.03	6	5	p16.jpg	2	1.033458	154
14.72	6	1	p23.jpg	5	1.702694	154
23.13	6	1	p3.jpg	4	1.955765	154
33.72	6	5	p19.jpg	5	1.355565	154
43.57	6	1	p14.jpg	5	1.316506	154
52.34	6	5	p21.jpg	2	1.559834	154
63.29	6	5	p5.jpg	2	1.148685	154
75.32	6	1	p9.jpg	5	0.4595143	154
87	6	1	p13.jpg	2	0.4231391	154
97.95	6	1	p8.jpg	1	1.641993	154
107.8	6	1	p10.jpg	4	3.815214	154
119.84	6	1	p7.jpg	1	1.618501	154
129.34	6	5	p18.jpg	5	1.520939	154
138.83	6	5	p1.jpg	2	0.9982282	154
150.13	6	5	p15.jpg	NA	NA	154
158.53	6	5	p24.jpg	1	3.958581	154
167.3	6	1	p11.jpg	2	0.7321317	154
177.52	6	1	p4.jpg	1	2.562891	154
186.64	6	1	p2.jpg	2	1.669481	154
197.96	6	5	p20.jpg	5	1.290146	154
208.54	6	1	p6.jpg	2	0.7314611	154
216.59	6	5	p12.jpg	2	1.441653	154
226.81	6	5	p17.jpg	NA	NA	154
235.94	6	5	p22.jpg	5	0.4317613	154
3.02	6	1	c11.jpg	2	1.841586	156
11.43	6	5	c15.jpg	4	2.33161	156
22.75	6	5	c14.jpg	6	1.964131	156
32.24	6	5	c5.jpg	4	2.083555	156
43.2	6	1	c2.jpg	1	3.396681	156
51.23	6	1	c10.jpg	2	2.112381	156
59.98	6	5	c24.jpg	5	1.720978	156
68.02	6	5	c4.jpg	5	2.025021	156
77.16	6	5	c3.jpg	6	1.895933	156
87.38	6	1	c8.jpg	1	2.649051	156
99.41	6	5	c20.jpg	4	2.829929	156
107.81	6	5	c9.jpg	5	2.048196	156
116.57	6	5	c12.jpg	6	2.765957	156
128.24	6	5	c23.jpg	3	2.416695	156
140.28	6	1	c19.jpg	3	2.721841	156
151.23	6	1	c1.jpg	2	2.715364	156
160.72	6	1	c6.jpg	1	2.058239	156
170.57	6	1	c13.jpg	1	2.160898	156
181.14	6	1	c17.jpg	1	1.256077	156
190.27	6	5	c7.jpg	3	2.033784	156
200.85	6	1	c21.jpg	1	1.394441	156
212.16	6	5	c22.jpg	6	2.013295	156
222.01	6	1	c18.jpg	2	1.782359	156
232.23	6	1	c16.jpg	1	1.941297	156
3.03	6	1	p20.jpg	1	1.730809	157
13.27	6	5	p23.jpg	5	2.134228	157
23.5	6	5	p13.jpg	6	2.038825	157
32.26	6	1	p18.jpg	1	1.754854	157
42.13	6	5	p7.jpg	7	1.237925	157
51.62	6	5	p2.jpg	7	0.863049	157
62.57	6	1	p17.jpg	4	3.066807	157
73.15	6	5	p9.jpg	7	1.156192	157
85.2	6	1	p1.jpg	4	2.23513	157
93.6	6	5	p10.jpg	7	1.295681	157
103.46	6	1	p16.jpg	1	1.25951	157
114.4	6	1	p24.jpg	2	1.574781	157
122.44	6	5	p6.jpg	5	2.422759	157
134.11	6	5	p8.jpg	7	1.261727	157
143.24	6	1	p5.jpg	1	1.389919	157
155.28	6	5	p4.jpg	5	2.276143	157
165.86	6	5	p14.jpg	6	1.887501	157
177.17	6	1	p22.jpg	3	2.425672	157
186.67	6	1	p15.jpg	2	1.92506	157
197.97	6	1	p21.jpg	5	2.851619	157
207.1	6	5	p3.jpg	7	0.9726502	157
215.5	6	5	p11.jpg	7	1.011552	157
223.55	6	1	p19.jpg	3	2.133337	157
235.22	6	1	p12.jpg	1	1.459834	157
3	6	5	c22.jpg	3	2.267663	158
12.1	6	5	c4.jpg	2	3.561433	158
22	6	1	c19.jpg	2	1.518142	158
30	6	1	c18.jpg	1	0.8939309	158
41	6	5	c14.jpg	2	2.344503	158
49.7	6	1	c6.jpg	1	2.669825	158
59.6	6	1	c8.jpg	1	1.342799	158
69.1	6	5	c24.jpg	5	2.920025	158
80	6	1	c21.jpg	2	2.467913	158
88.4	6	5	c15.jpg	4	2.820543	158
100.1	6	1	c11.jpg	1	2.233157	158
111.4	6	5	c9.jpg	2	2.859079	158
121.6	6	1	c17.jpg	1	2.304023	158
130.7	6	5	c3.jpg	2	1.354754	158
138.8	6	1	c16.jpg	1	2.308808	158
150.5	6	5	c7.jpg	3	2.698017	158
161	6	5	c20.jpg	2	1.628423	158
173.1	6	1	c2.jpg	1	2.071931	158
183.7	6	1	c10.jpg	2	1.785433	158
195.7	6	5	c23.jpg	4	2.804263	158
205.2	6	1	c13.jpg	2	2.631295	158
214	6	1	c1.jpg	2	2.244709	158
224.2	6	5	c12.jpg	4	2.456635	158
235.5	6	5	c5.jpg	5	2.448626	158
3.02	6	1	c21.jpg	5	2.858588	161
13.98	6	1	c13.jpg	1	2.879273	161
22.38	6	5	c12.jpg	4	2.716199	161
31.88	6	1	c6.jpg	2	2.754546	161
39.91	6	1	c8.jpg	1	2.250881	161
50.13	6	5	c22.jpg	6	2.264169	161
58.17	6	5	c23.jpg	5	1.726801	161
68.74	6	1	c10.jpg	1	2.311505	161
80.41	6	5	c14.jpg	4	2.468273	161
91.35	6	5	c4.jpg	5	2.178364	161
99.76	6	5	c7.jpg	4	3.648728	161
109.61	6	5	c24.jpg	6	2.227575	161
121.65	6	1	c2.jpg	2	2.897414	161
132.97	6	5	c3.jpg	3	2.408962	161
144.64	6	1	c16.jpg	4	2.356538	161
153.4	6	1	c17.jpg	2	2.376033	161
162.52	6	5	c5.jpg	4	3.15171	161
173.84	6	1	c1.jpg	1	2.563306	161
185.87	6	1	c18.jpg	2	1.690692	161
195.73	6	1	c11.jpg	1	2.101743	161
206.31	6	5	c9.jpg	3	1.928867	161
216.53	6	1	c19.jpg	3	2.016406	161
226.02	6	5	c20.jpg	5	3.058737	161
234.78	6	5	c15.jpg	6	2.051298	161
3	6	1	p13.jpg	2	2.93536	162
13.6	6	1	p10.jpg	2	2.164119	162
22.4	6	5	p1.jpg	6	2.289294	162
34.5	6	1	p3.jpg	1	0.920467	162
46.5	6	5	p20.jpg	7	2.459653	162
57.1	6	5	p18.jpg	7	1.245001	162
66.9	6	1	p7.jpg	1	1.055224	162
76.4	6	1	p8.jpg	1	1.415239	162
85.6	6	5	p17.jpg	6	1.910551	162
94.3	6	5	p24.jpg	5	2.543342	162
105.6	6	1	p6.jpg	2	2.40825	162
115.9	6	1	p2.jpg	1	1.447488	162
127.2	6	5	p19.jpg	6	1.693235	162
135.6	6	5	p12.jpg	7	1.04001	162
144.7	6	1	p23.jpg	1	2.781358	162
152.7	6	5	p22.jpg	7	1.107	162
164.4	6	1	p11.jpg	1	1.293614	162
172.8	6	5	p15.jpg	5	2.581063	162
182.3	6	5	p5.jpg	6	2.588012	162
193.3	6	1	p9.jpg	1	2.952989	162
204.9	6	5	p21.jpg	6	1.636106	162
213	6	5	p16.jpg	5	2.317882	162
223.2	6	1	p14.jpg	1	2.802248	162
234.1	6	1	p4.jpg	1	1.099832	162
3.03	6	1	p12.jpg	2	1.914668	163
12.54	6	1	p1.jpg	1	1.102616	163
23.49	6	5	p7.jpg	5	1.482099	163
32.62	6	1	p16.jpg	1	1.873182	163
44.66	6	5	p9.jpg	7	1.070106	163
54.53	6	1	p20.jpg	2	1.600573	163
62.92	6	5	p23.jpg	2	1.316897	163
73.87	6	5	p13.jpg	5	2.233877	163
83.36	6	5	p14.jpg	6	2.091153	163
94.67	6	5	p10.jpg	7	1.852339	163
106.72	6	1	p22.jpg	2	1.359184	163
115.48	6	1	p24.jpg	1	2.052932	163
127.16	6	5	p4.jpg	5	1.734411	163
135.56	6	5	p8.jpg	6	1.820556	163
147.23	6	5	p3.jpg	5	1.412146	163
155.28	6	1	p5.jpg	2	1.396709	163
164.42	6	1	p19.jpg	3	1.841379	163
174.64	6	1	p17.jpg	3	3.484052	163
185.95	6	5	p2.jpg	7	1.788776	163
196.54	6	1	p18.jpg	2	1.815286	163
204.58	6	1	p15.jpg	3	1.559702	163
214.44	6	5	p11.jpg	5	1.782225	163
223.21	6	1	p21.jpg	4	1.715629	163
233.79	6	5	p6.jpg	5	2.052305	163
3.03	6	5	c6.jpg	5	2.806988	164
12.17	6	5	c17.jpg	6	2.320661	164
22.75	6	5	c16.jpg	6	1.761847	164
33.69	6	1	c7.jpg	6	2.789062	164
43.18	6	1	c12.jpg	5	1.544392	164
54.85	6	5	c19.jpg	6	1.85073	164
64.69	6	5	c8.jpg	6	2.087464	164
76.01	6	5	c2.jpg	6	1.289239	164
84.78	6	1	c14.jpg	4	1.859866	164
92.81	6	5	c18.jpg	6	1.47255	164
101.21	6	1	c9.jpg	5	1.358408	164
113.25	6	1	c22.jpg	6	2.728763	164
124.56	6	1	c3.jpg	5	2.200369	164
134.41	6	5	c10.jpg	6	1.46801	164
142.45	6	5	c13.jpg	5	0.950002	164
154.13	6	5	c1.jpg	5	2.611388	164
166.16	6	1	c24.jpg	5	1.619904	164
176.38	6	5	c21.jpg	7	1.381537	164
186.6	6	1	c15.jpg	5	2.598013	164
197.18	6	1	c20.jpg	4	3.68128	164
206.31	6	5	c11.jpg	2	0.1318371	164
215.79	6	1	c5.jpg	5	1.468549	164
226.73	6	1	c23.jpg	5	2.076479	164
235.13	6	1	c4.jpg	4	1.441323	164
3	6	1	p23.jpg	1	1.588066	165
15.1	6	5	p24.jpg	5	1.93461	165
23.8	6	1	p13.jpg	2	2.661301	165
34.8	6	5	p19.jpg	1	1.39957	165
46.1	6	5	p12.jpg	3	2.53991	165
56	6	1	p4.jpg	3	2.285663	165
66.5	6	1	p11.jpg	2	1.690385	165
74.9	6	1	p7.jpg	1	1.960507	165
84.8	6	1	p2.jpg	3	2.406111	165
95	6	5	p16.jpg	6	1.700789	165
106	6	1	p3.jpg	2	2.116064	165
115.1	6	5	p21.jpg	5	1.336123	165
123.5	6	1	p10.jpg	4	2.376329	165
132.3	6	5	p1.jpg	4	2.206464	165
141.4	6	5	p17.jpg	3	2.24027	165
153.1	6	5	p18.jpg	3	1.758294	165
163.7	6	1	p14.jpg	2	2.037828	165
171.7	6	1	p9.jpg	1	1.667834	165
181.2	6	1	p6.jpg	3	2.847655	165
192.5	6	5	p20.jpg	1	1.42415	165
202	6	5	p22.jpg	5	1.261696	165
212.2	6	1	p8.jpg	4	1.923807	165
223.9	6	5	p15.jpg	7	1.617421	165
236	6	5	p5.jpg	4	2.348259	165
3.1	6	1	p6.jpg	4	3.442706	166
15.1	6	5	p19.jpg	6	1.341843	166
23.9	6	5	p16.jpg	5	2.513086	166
32.3	6	1	p10.jpg	3	2.546372	166
43.6	6	1	p13.jpg	2	2.713283	166
51.7	6	1	p11.jpg	3	2.46752	166
62.6	6	5	p15.jpg	2	2.780632	166
72.5	6	1	p2.jpg	1	2.500827	166
81.2	6	5	p17.jpg	4	2.536151	166
92.6	6	5	p5.jpg	5	2.548252	166
101.7	6	5	p21.jpg	5	2.141167	166
111.2	6	5	p24.jpg	4	1.963999	166
121.4	6	5	p12.jpg	4	2.667568	166
133.1	6	1	p23.jpg	3	2.947963	166
141.5	6	5	p20.jpg	2	2.736497	166
152.1	6	1	p4.jpg	2	3.437125	166
161.2	6	1	p7.jpg	1	1.384942	166
170.7	6	1	p3.jpg	1	1.502619	166
181.3	6	1	p9.jpg	1	3.218614	166
192.9	6	1	p8.jpg	3	1.965745	166
203.2	6	5	p1.jpg	6	2.413213	166
215.2	6	5	p22.jpg	2	2.659757	166
226.2	6	5	p18.jpg	5	3.630333	166
234.2	6	1	p14.jpg	2	5.208041	166
3.1	6	1	c22.jpg	5	2.411579	167
11.1	6	5	c17.jpg	2	2.453097	167
19.5	6	1	c15.jpg	2	2.660346	167
31.6	6	1	c5.jpg	2	2.876683	167
42.9	6	5	c11.jpg	4	3.5029	167
51.6	6	5	c21.jpg	6	2.764654	167
61.1	6	5	c1.jpg	6	1.89507	167
72.8	6	5	c13.jpg	4	2.270251	167
84.1	6	1	c14.jpg	3	3.29243	167
92.5	6	1	c9.jpg	2	2.244629	167
103.1	6	1	c3.jpg	5	4.232208	167
114	6	1	c20.jpg	2	1.799832	167
123.9	6	5	c10.jpg	5	2.603443	167
134.1	6	1	c4.jpg	2	2.405283	167
143.6	6	5	c8.jpg	6	1.766511	167
154.5	6	5	c18.jpg	3	2.712205	167
166.6	6	5	c6.jpg	5	2.697104	167
177.2	6	1	c7.jpg	5	4.17E-04	167
186.3	6	1	c12.jpg	3	2.398278	167
195	6	1	c24.jpg	2	2.065723	167
205.3	6	5	c2.jpg	4	3.236233	167
214.4	6	5	c16.jpg	2	2.060395	167
222.4	6	5	c19.jpg	6	2.184959	167
232.3	6	1	c23.jpg	3	2.752204	167
3.04	6	5	c2.jpg	2	1.568543	171
14.72	6	1	c7.jpg	1	1.327639	171
23.51	6	1	c4.jpg	2	1.902577	171
34.82	6	1	c5.jpg	2	1.059507	171
45.4	6	5	c17.jpg	3	1.228099	171
56.71	6	1	c15.jpg	1	2.789676	171
67.65	6	1	c14.jpg	2	1.486208	171
77.5	6	1	c20.jpg	1	1.798189	171
89.54	6	1	c9.jpg	2	1.701676	171
101.21	6	1	c24.jpg	3	1.602356	171
109.24	6	1	c23.jpg	4	3.919627	171
119.46	6	5	c16.jpg	4	1.35005	171
129.32	6	5	c21.jpg	5	1.236654	171
138.81	6	1	c12.jpg	3	2.061492	171
147.23	6	5	c1.jpg	1	1.436604	171
158.17	6	5	c18.jpg	3	1.282513	171
166.2	6	5	c8.jpg	5	1.575192	171
174.6	6	5	c13.jpg	4	1.987475	171
183.72	6	5	c19.jpg	5	1.674179	171
195.76	6	5	c6.jpg	2	1.374475	171
204.53	6	5	c11.jpg	3	1.430424	171
214.75	6	1	c3.jpg	1	1.631433	171
223.88	6	5	c10.jpg	4	1.97756	171
234.46	6	1	c22.jpg	2	1.371943	171
3.03	6	1	c11.jpg	1	1.100753	172
11.08	6	5	c12.jpg	4	2.766679	172
19.12	6	1	c16.jpg	1	1.391893	172
30.42	6	1	c8.jpg	1	1.388884	172
42.45	6	5	c14.jpg	3	2.958138	172
53.4	6	5	c24.jpg	6	1.856704	172
63.98	6	1	c13.jpg	3	2.938907	172
74.57	6	5	c22.jpg	5	2.087727	172
83.34	6	1	c1.jpg	1	1.579763	172
92.83	6	1	c19.jpg	1	2.635592	172
104.5	6	5	c20.jpg	3	2.230191	172
113.99	6	5	c4.jpg	2	2.884442	172
126.02	6	1	c10.jpg	1	1.267503	172
134.42	6	5	c23.jpg	4	3.974726	172
144.65	6	5	c5.jpg	4	2.608803	172
155.96	6	5	c7.jpg	5	2.542394	172
167.63	6	1	c18.jpg	2	1.421211	172
177.84	6	1	c21.jpg	1	1.284399	172
186.99	6	5	c3.jpg	6	2.565012	172
196.11	6	1	c17.jpg	1	1.139712	172
207.07	6	1	c2.jpg	1	2.449288	172
215.83	6	5	c15.jpg	3	2.199982	172
225.68	6	1	c6.jpg	1	2.203524	172
235.53	6	5	c9.jpg	6	1.661567	172
3.1	6	1	p23.jpg	3	2.183052	173
15.1	6	5	p16.jpg	5	1.365187	173
24.6	6	5	p12.jpg	5	1.179815	173
34.9	6	5	p19.jpg	3	0.9770742	173
44.7	6	5	p22.jpg	4	1.2235	173
56.8	6	1	p3.jpg	5	1.039166	173
68.1	6	5	p5.jpg	5	1.015522	173
76.8	6	1	p2.jpg	2	1.720085	173
86.7	6	1	p6.jpg	5	1.214994	173
95.5	6	1	p4.jpg	2	1.497605	173
105.7	6	1	p14.jpg	3	1.730872	173
115.2	6	5	p24.jpg	5	1.88242	173
126.5	6	1	p13.jpg	2	2.257473	173
137.1	6	5	p20.jpg	2	2.364983	173
148.7	6	1	p11.jpg	3	1.893107	173
160.4	6	5	p17.jpg	5	1.37218	173
168.8	6	5	p21.jpg	5	1.277945	173
179.4	6	1	p8.jpg	3	1.539086	173
187.8	6	5	p15.jpg	5	1.490035	173
198.7	6	1	p10.jpg	3	1.513541	173
206.8	6	1	p9.jpg	3	1.643542	173
215.9	6	1	p7.jpg	2	1.229627	173
226.9	6	5	p1.jpg	5	1.280598	173
234.9	6	5	p18.jpg	5	1.611533	173
3.03	6	5	c16.jpg	6	4.319046	174
15.09	6	1	c3.jpg	1	2.268306	174
26.76	6	5	c19.jpg	5	3.196101	174
37.71	6	5	c1.jpg	2	2.265539	174
46.49	6	5	c2.jpg	1	2.960303	174
57.06	6	1	c4.jpg	1	1.434368	174
68.37	6	5	c10.jpg	6	3.58636	174
78.21	6	5	c6.jpg	6	2.621002	174
86.61	6	1	c22.jpg	1	1.613547	174
96.1	6	1	c23.jpg	2	3.276508	174
104.14	6	1	c14.jpg	1	2.533871	174
113.26	6	5	c18.jpg	4	4.808644	174
124.56	6	1	c5.jpg	1	1.63238	174
135.51	6	1	c15.jpg	1	1.253937	174
147.54	6	5	c17.jpg	7	1.674674	174
157.03	6	1	c24.jpg	1	1.554389	174
166.88	6	5	c8.jpg	6	3.410529	174
178.55	6	5	c21.jpg	5	4.606981	174
188.76	6	5	c11.jpg	4	4.7687	174
197.88	6	1	c12.jpg	1	1.525252	174
206.64	6	1	c9.jpg	3	3.663754	174
217.23	6	1	c7.jpg	2	3.449029	174
225.62	6	1	c20.jpg	1	1.623207	174
235.85	6	5	c13.jpg	4	3.521024	174
3.03	6	1	p15.jpg	2	2.49691	175
12.55	6	5	p11.jpg	4	2.674661	175
24.23	6	5	p6.jpg	3	3.061764	175
34.09	6	1	p21.jpg	3	1.95291	175
45.41	6	1	p12.jpg	1	1.726447	175
53.81	6	5	p7.jpg	3	2.007927	175
62.93	6	5	p23.jpg	3	2.732793	175
74.25	6	1	p19.jpg	2	1.891976	175
83.01	6	5	p3.jpg	4	2.24851	175
93.96	6	5	p13.jpg	4	2.030599	175
106.01	6	5	p2.jpg	4	1.998271	175
114.05	6	5	p14.jpg	1	2.399152	175
124.64	6	5	p4.jpg	4	2.507113	175
134.13	6	5	p9.jpg	2	2.164545	175
144.35	6	5	p10.jpg	5	1.85032	175
152.76	6	5	p8.jpg	3	2.076235	175
161.52	6	1	p5.jpg	1	3.981652	175
169.56	6	1	p18.jpg	1	2.268668	175
178.7	6	1	p1.jpg	1	1.355438	175
189.64	6	1	p24.jpg	1	2.419978	175
201.68	6	1	p22.jpg	2	2.633357	175
211.9	6	1	p17.jpg	1	1.267259	175
223.58	6	1	p16.jpg	1	1.537514	175
234.17	6	1	p20.jpg	2	2.332607	175
3.03	6	5	c12.jpg	3	2.980227	176
12.2	6	1	c19.jpg	2	2.038858	176
23.87	6	1	c17.jpg	2	2.335439	176
35.2	6	1	c1.jpg	3	1.771895	176
43.96	6	5	c22.jpg	4	3.273678	176
52.72	6	5	c7.jpg	4	1.814425	176
62.2	6	1	c8.jpg	2	2.83512	176
72.78	6	5	c5.jpg	3	3.856405	176
84.45	6	5	c14.jpg	5	2.62958	176
96.49	6	1	c21.jpg	3	2.806709	176
105.98	6	5	c24.jpg	3	4.055511	176
117.29	6	1	c11.jpg	3	2.981051	176
127.51	6	5	c23.jpg	4	2.845819	176
138.09	6	1	c18.jpg	4	2.483105	176
146.49	6	1	c13.jpg	2	1.600606	176
158.53	6	5	c15.jpg	4	2.882319	176
168.75	6	5	c3.jpg	6	2.437456	176
179.69	6	1	c10.jpg	4	3.00045	176
190.63	6	1	c6.jpg	3	4.32747	176
199.77	6	1	c2.jpg	1	7.05E-04	176
209.63	6	5	c9.jpg	2	4.64E-04	176
219.48	6	5	c4.jpg	4	2.12372	176
227.52	6	1	c16.jpg	4	4.17E-04	176
235.59	6	5	c20.jpg	5	2.4042	176
3.034	6	5	c22.jpg	3	2.207025	178
11.099	6	1	c2.jpg	2	2.184237	178
21.327	6	1	c8.jpg	1	1.383807	178
33.366	6	5	c20.jpg	4	2.312051	178
44.307	6	1	c11.jpg	1	2.494287	178
52.712	6	5	c15.jpg	6	1.814578	178
64.741	6	1	c10.jpg	1	1.94413	178
74.23	6	5	c5.jpg	6	1.8038	178
85.9	6	5	c4.jpg	4	1.392275	178
96.477	6	1	c21.jpg	1	2.326081	178
106.33	6	5	c12.jpg	6	1.432101	178
117.631	6	1	c13.jpg	1	1.988522	178
128.207	6	1	c18.jpg	1	2.076891	178
136.241	6	1	c19.jpg	2	2.185585	178
147.918	6	5	c7.jpg	2	1.432739	178
156.676	6	1	c16.jpg	2	1.904873	178
167.978	6	1	c17.jpg	1	1.583432	178
178.916	6	5	c14.jpg	3	1.621412	178
188.403	6	1	c6.jpg	1	1.420123	178
197.541	6	1	c1.jpg	1	1.259732	178
206.324	6	5	c3.jpg	2	1.650861	178
216.172	6	5	c23.jpg	4	1.961015	178
224.563	6	5	c9.jpg	2	1.448081	178
234.777	6	5	c24.jpg	6	1.287919	178
3.03	6	5	c10.jpg	1	1.838133	181
11.08	6	1	c14.jpg	1	1.446471	181
21.31	6	1	c5.jpg	1	1.514873	181
29.71	6	5	c21.jpg	1	1.415978	181
39.94	6	1	c3.jpg	1	1.842921	181
49.07	6	1	c9.jpg	1	2.501987	181
58.92	6	1	c23.jpg	1	2.071992	181
68.41	6	5	c16.jpg	1	1.624864	181
77.53	6	1	c22.jpg	2	1.053	181
88.47	6	5	c11.jpg	2	2.063046	181
96.87	6	1	c20.jpg	1	1.937767	181
107.45	6	1	c15.jpg	3	1.683474	181
119.48	6	1	c12.jpg	2	1.560969	181
131.15	6	5	c13.jpg	1	2.268292	181
140.65	6	5	c2.jpg	3	1.682445	181
151.6	6	5	c8.jpg	5	1.879684	181
162.92	6	1	c4.jpg	2	1.768864	181
174.21	6	5	c18.jpg	3	1.555237	181
184.08	6	5	c17.jpg	4	1.238362	181
192.85	6	5	c19.jpg	4	1.817289	181
204.52	6	1	c7.jpg	1	1.741562	181
212.57	6	5	c1.jpg	2	1.587258	181
224.61	6	1	c24.jpg	1	1.673932	181
233.37	6	5	c6.jpg	6	1.836593	181
3.031	6	1	p16.jpg	6	0.004377881	182
14.363	6	1	p24.jpg	2	3.90113	182
25.315	6	1	p20.jpg	2	2.318972	182
36.997	6	5	p11.jpg	5	2.178666	182
45.408	6	5	p14.jpg	5	2.000535	182
55.628	6	1	p17.jpg	3	4.183891	182
64.389	6	1	p19.jpg	1	1.554993	182
72.795	6	1	p15.jpg	1	1.424578	182
84.843	6	5	p3.jpg	7	1.233772	182
96.531	6	1	p12.jpg	2	2.416031	182
105.663	6	1	p1.jpg	1	2.369356	182
113.698	6	5	p23.jpg	4	2.187298	182
121.733	6	1	p5.jpg	2	2.157404	182
131.591	6	5	p8.jpg	5	2.800231	182
142.9	6	5	p13.jpg	4	1.388612	182
152.03	6	1	p18.jpg	2	2.38692	182
161.523	6	5	p7.jpg	4	2.253741	182
173.565	6	5	p10.jpg	3	2.077254	182
183.426	6	5	p2.jpg	5	1.830274	182
192.199	6	5	p6.jpg	5	1.754071	182
201.695	6	5	p4.jpg	6	1.863431	182
212.642	6	1	p21.jpg	3	1.914847	182
222.872	6	1	p22.jpg	2	2.41217	182
233.456	6	5	p9.jpg	7	2.036212	182
3.03	6	5	c9.jpg	5	2.699962	183
12.18	6	1	c8.jpg	2	3.141058	183
22.03	6	5	c14.jpg	6	3.180306	183
31.88	6	5	c7.jpg	5	2.713997	183
42.82	6	1	c6.jpg	5	4.019417	183
54.13	6	1	c13.jpg	5	3.458175	183
64.35	6	1	c1.jpg	4	3.697812	183
73.47	6	5	c4.jpg	3	4.009908	183
84.77	6	5	c22.jpg	3	3.346408	183
94.26	6	5	c23.jpg	7	1.405671	183
105.93	6	5	c15.jpg	3	3.098034	183
114.32	6	1	c10.jpg	4	2.275111	183
123.8	6	1	c17.jpg	1	2.452841	183
132.2	6	5	c20.jpg	5	2.37347	183
142.42	6	5	c24.jpg	4	2.443928	183
151.18	6	1	c11.jpg	3	2.512747	183
159.94	6	1	c18.jpg	4	2.82713	183
171.6	6	1	c19.jpg	5	2.766418	183
183.63	6	5	c12.jpg	4	2.213339	183
194.21	6	5	c5.jpg	6	2.431019	183
202.24	6	1	c21.jpg	2	2.015875	183
213.18	6	1	c16.jpg	4	1.876513	183
223.76	6	1	c2.jpg	5	4.017097	183
231.8	6	5	c3.jpg	4	2.202946	183
3	6	5	p8.jpg	5	0.002669989	184
14.7	6	1	p16.jpg	1	2.361999	184
24.2	6	5	p3.jpg	6	2.82348	184
35.1	6	1	p18.jpg	5	7.62E-04	184
46.4	6	5	p6.jpg	1	2.009363	184
55.9	6	5	p23.jpg	5	1.613952	184
67.2	6	5	p11.jpg	3	4.131082	184
76	6	5	p13.jpg	4	2.321597	184
85.1	6	1	p12.jpg	1	3.580717	184
95.4	6	1	p24.jpg	4	2.076293	184
106.3	6	1	p15.jpg	1	3.166125	184
114.3	6	5	p7.jpg	5	2.821723	184
122.4	6	1	p5.jpg	1	2.636797	184
131.1	6	1	p1.jpg	5	4.377684	184
143.2	6	5	p2.jpg	5	5.33E-04	184
153.8	6	1	p20.jpg	5	1.37626	184
164.4	6	1	p22.jpg	2	2.087465	184
173.5	6	5	p4.jpg	3	2.933795	184
183.7	6	5	p14.jpg	4	2.840627	184
193.6	6	5	p10.jpg	1	1.76763	184
205.6	6	1	p21.jpg	4	2.440646	184
217.3	6	1	p17.jpg	5	4.57E-04	184
225.7	6	5	p9.jpg	3	2.943926	184
234.1	6	1	p19.jpg	3	1.959292	184
3.03	6	5	c12.jpg	3	3.507867	185
14.72	6	5	c22.jpg	5	2.354885	185
23.85	6	5	c7.jpg	2	2.707839	185
35.16	6	5	c15.jpg	4	2.946295	185
43.56	6	1	c21.jpg	2	3.66362	185
54.88	6	1	c1.jpg	1	3.79859	185
65.09	6	5	c20.jpg	5	2.581669	185
73.12	6	1	c13.jpg	2	1.906034	185
82.25	6	5	c23.jpg	7	2.118999	185
91.01	6	5	c14.jpg	2	4.100857	185
103.05	6	5	c24.jpg	3	2.022942	185
113.98	6	1	c16.jpg	2	2.092805	185
122.38	6	1	c11.jpg	1	1.161611	185
133.32	6	5	c4.jpg	6	3.372198	185
143.18	6	5	c5.jpg	7	1.673395	185
152.69	6	1	c2.jpg	2	2.052181	185
163.27	6	1	c18.jpg	1	2.203895	185
172.76	6	1	c6.jpg	1	2.043718	185
184.44	6	5	c3.jpg	6	2.268903	185
195.02	6	1	c10.jpg	1	2.563213	185
207.06	6	1	c19.jpg	2	3.799931	185
216.92	6	1	c8.jpg	1	1.798024	185
225.68	6	5	c9.jpg	4	3.690311	185
235.9	6	1	c17.jpg	1	0.8948593	185
3.03	6	1	p6.jpg	6	3.065296	186
14.73	6	5	p1.jpg	5	3.951423	186
26.78	6	1	p8.jpg	3	3.210846	186
37	6	5	p21.jpg	NA	NA	186
48.32	6	5	p5.jpg	5	3.413772	186
56.72	6	1	p13.jpg	4	5.861942	186
67.3	6	1	p2.jpg	4	2.95503	186
76.07	6	5	p15.jpg	6	4.041915	186
84.84	6	5	p22.jpg	NA	NA	186
93.97	6	1	p11.jpg	3	4.005802	186
103.83	6	5	p24.jpg	4	4.342399	186
113.32	6	5	p18.jpg	5	2.357977	186
123.56	6	1	p7.jpg	NA	NA	186
134.87	6	1	p9.jpg	3	2.936734	186
144	6	5	p19.jpg	4	2.657965	186
154.95	6	5	p20.jpg	NA	NA	186
165.54	6	1	p14.jpg	4	2.294642	186
173.94	6	5	p16.jpg	5	3.145788	186
185.61	6	5	p12.jpg	5	3.010066	186
195.47	6	1	p23.jpg	4	4.596543	186
203.51	6	1	p10.jpg	4	2.738164	186
213.01	6	1	p3.jpg	2	3.070802	186
225.05	6	5	p17.jpg	5	5.110979	186
233.1	6	1	p4.jpg	4	3.029042	186
3.03	6	1	c4.jpg	6	2.919198	187
12.53	6	1	c24.jpg	1	2.516194	187
20.57	6	1	c22.jpg	3	2.954571	187
31.88	6	5	c13.jpg	4	2.299966	187
42.46	6	5	c6.jpg	4	1.897415	187
51.22	6	1	c5.jpg	6	3.129068	187
63.25	6	1	c14.jpg	3	3.053562	187
73.83	6	1	c9.jpg	4	3.855552	187
82.24	6	5	c19.jpg	5	3.885802	187
91.73	6	1	c20.jpg	1	3.858063	187
103.41	6	1	c3.jpg	2	2.673024	187
113.63	6	5	c8.jpg	5	2.215338	187
122.03	6	5	c1.jpg	3	4.859196	187
132.26	6	1	c15.jpg	1	3.4546	187
141.39	6	1	c23.jpg	1	4.266764	187
150.16	6	5	c10.jpg	2	2.479423	187
161.1	6	5	c16.jpg	2	1.635637	187
172.77	6	1	c7.jpg	1	4.085991	187
183.73	6	5	c2.jpg	2	3.744313	187
195.76	6	5	c17.jpg	3	1.963196	187
207.08	6	1	c12.jpg	1	3.681606	187
216.92	6	5	c21.jpg	3	2.249891	187
224.96	6	5	c11.jpg	3	2.309306	187
234.81	6	5	c18.jpg	1	1.990972	187
3.03	6	5	p23.jpg	2	2.487724	188
12.54	6	1	p24.jpg	NA	NA	188
23.13	6	5	p8.jpg	5	3.027699	188
35.17	6	5	p13.jpg	5	2.509371	188
43.57	6	1	p12.jpg	NA	NA	188
53.43	6	5	p9.jpg	4	1.873269	188
64.74	6	1	p19.jpg	NA	NA	188
76.78	6	5	p7.jpg	1	2.07738	188
84.83	6	1	p20.jpg	1	2.729355	188
93.96	6	1	p15.jpg	1	1.473116	188
104.19	6	5	p2.jpg	2	2.764857	188
113.31	6	1	p17.jpg	2	2.272856	188
124.63	6	5	p14.jpg	3	1.969298	188
136.31	6	5	p3.jpg	3	1.863528	188
145.1	6	1	p1.jpg	1	1.669704	188
156.78	6	1	p22.jpg	1	2.430619	188
166.27	6	5	p10.jpg	6	2.776508	188
176.85	6	1	p16.jpg	1	1.417686	188
187.81	6	1	p18.jpg	1	2.038568	188
196.21	6	1	p21.jpg	1	1.427566	188
204.25	6	5	p6.jpg	6	1.605743	188
214.48	6	1	p5.jpg	1	1.322666	188
223.26	6	5	p11.jpg	4	2.704052	188
234.21	6	5	p4.jpg	4	2.061252	188
3.03	6	5	c24.jpg	4	1.724227	190
13.99	6	1	c13.jpg	1	2.26664	190
23.48	6	1	c8.jpg	1	1.86132	190
35.17	6	1	c2.jpg	1	2.049917	190
43.93	6	5	c5.jpg	1	1.860193	190
53.42	6	1	c11.jpg	2	2.792529	190
61.46	6	1	c1.jpg	1	2.918085	190
72.05	6	1	c19.jpg	1	3.296051	190
83	6	1	c10.jpg	1	3.536501	190
94.31	6	1	c21.jpg	1	2.374841	190
103.45	6	1	c18.jpg	1	2.455438	190
115.48	6	5	c7.jpg	1	3.258474	190
126.79	6	1	c17.jpg	2	2.865604	190
137.03	6	5	c3.jpg	4	2.7601	190
146.15	6	1	c6.jpg	1	3.496435	190
154.55	6	5	c23.jpg	2	2.269099	190
164.4	6	5	c4.jpg	2	3.093652	190
176.08	6	5	c15.jpg	2	5.486768	190
184.48	6	1	c16.jpg	1	2.903825	190
194.33	6	5	c20.jpg	2	1.608885	190
204.91	6	5	c14.jpg	2	2.432592	190
213.68	6	5	c9.jpg	3	2.397417	190
221.72	6	5	c12.jpg	3	4.797524	190
231.94	6	5	c22.jpg	2	4.1921	190
3.04	6	1	p5.jpg	1	1.358396	191
11.1	6	5	p7.jpg	4	1.777114	191
21.32	6	1	p17.jpg	1	1.151726	191
31.17	6	1	p12.jpg	1	1.015622	191
42.12	6	5	p13.jpg	6	1.576766	191
51.98	6	5	p10.jpg	5	1.741053	191
61.1	6	1	p15.jpg	1	0.9448522	191
71.68	6	5	p23.jpg	7	2.146394	191
80.45	6	1	p19.jpg	1	1.065667	191
89.95	6	1	p16.jpg	1	0.9746841	191
101.63	6	5	p2.jpg	7	1.484648	191
111.13	6	1	p20.jpg	1	1.178043	191
119.54	6	1	p18.jpg	1	1.301774	191
129.76	6	1	p22.jpg	1	0.9873391	191
138.53	6	5	p4.jpg	5	1.78577	191
149.49	6	5	p8.jpg	6	1.463292	191
161.17	6	1	p24.jpg	1	1.610236	191
172.49	6	5	p3.jpg	5	1.53344	191
184.52	6	1	p21.jpg	1	1.063929	191
196.56	6	5	p9.jpg	6	1.355877	191
204.6	6	5	p6.jpg	7	1.42269	191
215.18	6	5	p14.jpg	4	1.876045	191
223.59	6	1	p1.jpg	1	2.47358	191
232.73	6	5	p11.jpg	5	1.182509	191
3	6	5	c21.jpg	6	2.701272	192
14.7	6	1	c5.jpg	1	3.262777	192
23.8	6	5	c16.jpg	5	4.098395	192
34.4	6	1	c12.jpg	2	3.419364	192
43.9	6	1	c24.jpg	1	1.833861	192
52.3	6	1	c20.jpg	1	2.201681	192
64.4	6	1	c14.jpg	2	2.048811	192
74.2	6	5	c13.jpg	4	2.475109	192
82.3	6	5	c2.jpg	3	2.768722	192
91.4	6	5	c1.jpg	4	1.687184	192
101.3	6	1	c9.jpg	1	2.075314	192
110	6	5	c6.jpg	5	2.596711	192
118.4	6	1	c15.jpg	1	1.603434	192
126.5	6	5	c11.jpg	3	2.187545	192
137.4	6	5	c18.jpg	3	1.972385	192
146.2	6	1	c4.jpg	1	1.476704	192
157.1	6	5	c10.jpg	5	3.315893	192
167.3	6	1	c22.jpg	2	3.133772	192
178.6	6	1	c7.jpg	1	1.487935	192
188.9	6	1	c23.jpg	1	1.408873	192
199.4	6	5	c19.jpg	4	1.927374	192
208.9	6	5	c8.jpg	4	1.446803	192
220.2	6	5	c17.jpg	4	1.842838	192
232.3	6	1	c3.jpg	1	1.361558	192
3.03	6	1	p20.jpg	3	3.520422	193
14.363	6	1	p18.jpg	3	3.958156	193
24.584	6	1	p12.jpg	2	4.0891	193
34.074	6	5	p3.jpg	3	1.68622	193
44.292	6	5	p14.jpg	4	2.690137	193
55.965	6	1	p19.jpg	3	2.834867	193
67.639	6	5	p8.jpg	4	2.225884	193
76.406	6	5	p10.jpg	4	2.749835	193
86.992	6	5	p11.jpg	3	1.874834	193
95.03	6	1	p1.jpg	3	1.763538	193
103.794	6	1	p22.jpg	2	2.046371	193
111.839	6	5	p6.jpg	3	1.759499	193
120.236	6	5	p2.jpg	4	2.357868	193
130.091	6	1	p16.jpg	3	2.832677	193
139.222	6	1	p24.jpg	2	1.723998	193
147.622	6	1	p15.jpg	2	1.468577	193
159.66	6	1	p17.jpg	3	1.685474	193
170.239	6	5	p13.jpg	4	2.522141	193
181.184	6	5	p7.jpg	4	2.195853	193
190.675	6	5	p23.jpg	5	1.237117	193
202.715	6	5	p9.jpg	4	1.90911	193
211.847	6	1	p5.jpg	3	2.004447	193
222.791	6	5	p4.jpg	4	2.345324	193
234.105	6	1	p21.jpg	3	3.776888	193
3.03	6	5	c18.jpg	2	1.58539	194
11.08	6	1	c14.jpg	2	1.910497	194
22.76	6	5	c11.jpg	6	1.905109	194
32.25	6	1	c23.jpg	5	1.455237	194
41.38	6	5	c1.jpg	5	1.65348	194
51.24	6	5	c21.jpg	7	1.801402	194
62.19	6	1	c12.jpg	4	2.207411	194
72.04	6	5	c13.jpg	6	1.39071	194
82.26	6	1	c5.jpg	3	1.672339	194
94.31	6	1	c3.jpg	3	1.299103	194
102.34	6	1	c7.jpg	4	1.192304	194
110.74	6	1	c4.jpg	5	1.463615	194
120.23	6	1	c20.jpg	3	1.461469	194
131.54	6	5	c16.jpg	4	1.759608	194
142.13	6	5	c8.jpg	5	1.058721	194
154.16	6	5	c6.jpg	6	1.050499	194
162.57	6	1	c22.jpg	5	1.070721	194
173.51	6	1	c15.jpg	4	1.570291	194
182.27	6	5	c10.jpg	5	1.696698	194
193.58	6	1	c24.jpg	4	1.084408	194
203.8	6	1	c9.jpg	4	1.554203	194
214.38	6	5	c19.jpg	6	1.547506	194
223.15	6	5	c17.jpg	7	1.264706	194
232.28	6	5	c2.jpg	5	0.7278121	194
3.03	6	5	c21.jpg	4	4.41472	195
14.35	6	1	c24.jpg	1	2.19984	195
23.85	6	5	c19.jpg	5	3.02402	195
35.88	6	1	c15.jpg	1	1.734308	195
47.2	6	5	c1.jpg	4	2.486772	195
58.87	6	1	c4.jpg	1	1.830469	195
70.54	6	5	c11.jpg	3	2.429543	195
78.57	6	5	c17.jpg	4	1.492403	195
88.07	6	5	c2.jpg	2	2.987238	195
98.65	6	1	c20.jpg	3	1.084337	195
108.51	6	1	c3.jpg	3	2.18514	195
117.64	6	1	c9.jpg	3	2.180539	195
128.59	6	1	c7.jpg	3	1.832358	195
136.98	6	1	c12.jpg	2	2.043009	195
147.56	6	5	c6.jpg	5	2.894306	195
157.78	6	1	c14.jpg	3	1.415205	195
168.01	6	5	c13.jpg	3	1.346468	195
177.85	6	5	c8.jpg	5	1.476116	195
186.26	6	5	c18.jpg	5	1.30439	195
195.03	6	5	c10.jpg	4	1.327574	195
205.97	6	1	c5.jpg	2	1.48823	195
214.02	6	1	c22.jpg	1	1.027604	195
222.78	6	5	c16.jpg	2	0.9589972	195
231.9	6	1	c23.jpg	1	1.063123	195
3.03	6	1	c2.jpg	2	3.861932	196
13.99	6	5	c5.jpg	4	2.515	196
24.23	6	5	c14.jpg	4	2.56608	196
33	6	5	c20.jpg	7	2.403524	196
42.13	6	5	c22.jpg	6	1.3924	196
53.43	6	5	c7.jpg	5	2.95324	196
64.37	6	5	c12.jpg	5	2.549725	196
76.4	6	1	c18.jpg	3	3.591261	196
86.62	6	5	c23.jpg	5	2.028614	196
94.65	6	1	c17.jpg	3	1.934577	196
105.23	6	5	c9.jpg	6	1.774721	196
114.71	6	1	c10.jpg	3	2.664236	196
123.83	6	5	c4.jpg	6	1.61942	196
134.41	6	1	c13.jpg	2	2.271893	196
144.27	6	5	c15.jpg	6	1.97967	196
154.13	6	1	c1.jpg	5	3.863736	196
165.44	6	5	c3.jpg	5	3.022295	196
177.12	6	1	c21.jpg	4	2.517239	196
185.16	6	5	c24.jpg	6	1.554771	196
193.56	6	1	c11.jpg	3	2.360809	196
202.32	6	1	c8.jpg	2	2.351388	196
213.99	6	1	c6.jpg	2	1.676073	196
222.38	6	1	c16.jpg	2	2.98621	196
231.87	6	1	c19.jpg	2	3.617387	196
3.031	6	5	p3.jpg	3	2.73173	197
13.639	6	1	p18.jpg	1	2.676388	197
23.499	6	5	p8.jpg	3	1.761353	197
32.631	6	1	p17.jpg	2	2.631822	197
41.761	6	1	p16.jpg	2	1.834479	197
51.982	6	5	p7.jpg	4	1.75523	197
63.307	6	5	p23.jpg	2	1.865134	197
71.344	6	5	p11.jpg	5	1.70318	197
80.117	6	1	p12.jpg	2	2.546113	197
88.152	6	5	p13.jpg	3	1.628755	197
98.012	6	5	p9.jpg	5	1.722848	197
109.695	6	1	p1.jpg	1	1.626633	197
120.285	6	1	p24.jpg	1	1.657396	197
131.238	6	5	p2.jpg	4	1.623926	197
143.28	6	1	p21.jpg	2	1.200672	197
152.779	6	1	p22.jpg	3	1.899	197
161.196	6	5	p4.jpg	3	1.30636	197
170.703	6	1	p5.jpg	3	1.748057	197
182.026	6	1	p19.jpg	2	2.395377	197
193.711	6	5	p6.jpg	3	1.701432	197
204.663	6	5	p10.jpg	5	1.607333	197
214.89	6	5	p14.jpg	2	1.619047	197
223.288	6	1	p15.jpg	1	1.879972	197
235.341	6	1	p20.jpg	1	2.115069	197
3.02	6	1	c7.jpg	4	2.472206	201
13.26	6	5	c16.jpg	5	2.747367	201
23.5	6	1	c3.jpg	1	3.228663	201
32.63	6	1	c5.jpg	1	2.21068	201
44.67	6	5	c18.jpg	4	2.800146	201
55.98	6	5	c6.jpg	5	1.334406	201
65.84	6	5	c11.jpg	5	1.331296	201
74.6	6	5	c19.jpg	4	2.321378	201
82.63	6	1	c15.jpg	1	2.302415	201
91.4	6	5	c21.jpg	3	2.211338	201
101.99	6	1	c12.jpg	2	2.22359	201
113.66	6	5	c17.jpg	4	2.201435	201
125.34	6	5	c2.jpg	2	2.578572	201
134.83	6	5	c10.jpg	5	1.761759	201
146.87	6	5	c8.jpg	1	2.829645	201
157.81	6	1	c22.jpg	1	2.216983	201
167.66	6	1	c24.jpg	2	2.620656	201
178.97	6	5	c13.jpg	3	2.755762	201
187.36	6	1	c23.jpg	1	3.403041	201
195.77	6	5	c1.jpg	5	2.558802	201
204.89	6	1	c20.jpg	1	2.770375	201
214.38	6	1	c9.jpg	2	3.07677	201
224.96	6	1	c14.jpg	1	2.590092	201
235.9	6	1	c4.jpg	1	1.511999	201
3.03	6	5	p19.jpg	5	1.751812	202
12.54	6	1	p6.jpg	2	2.893257	202
20.58	6	1	p10.jpg	4	1.874247	202
31.18	6	1	p23.jpg	3	2.567986	202
43.22	6	5	p17.jpg	5	1.905176	202
54.9	6	5	p1.jpg	6	2.820541	202
63.3	6	1	p3.jpg	1	2.623947	202
72.8	6	5	p22.jpg	3	1.374675	202
82.66	6	1	p9.jpg	2	2.622076	202
91.06	6	5	p18.jpg	6	2.550066	202
100.19	6	1	p13.jpg	1	2.100822	202
111.51	6	5	p12.jpg	5	1.894118	202
121.74	6	5	p21.jpg	6	2.088309	202
132.69	6	1	p8.jpg	1	2.203176	202
142.91	6	5	p5.jpg	7	2.178814	202
151.68	6	5	p16.jpg	6	2.186581	202
163.72	6	1	p14.jpg	2	1.874982	202
172.48	6	5	p24.jpg	3	2.242136	202
180.52	6	1	p11.jpg	1	1.288392	202
192.2	6	5	p20.jpg	4	1.815383	202
203.52	6	1	p4.jpg	1	1.476499	202
212.66	6	1	p7.jpg	1	1.357647	202
223.61	6	1	p2.jpg	2	2.175692	202
233.46	6	5	p15.jpg	4	2.585585	202
3.1	6	1	p11.jpg	5	0.002595219	203
11.1	6	1	p8.jpg	1	3.406144	203
21.7	6	5	p24.jpg	2	1.434684	203
33	6	1	p2.jpg	1	1.00247	203
44.7	6	5	p15.jpg	3	3.398744	203
54.2	6	1	p7.jpg	1	1.136146	203
65.1	6	5	p17.jpg	2	1.61812	203
77.2	6	1	p3.jpg	1	1.401532	203
86	6	5	p19.jpg	2	1.970175	203
95.8	6	1	p9.jpg	2	2.615971	203
104.9	6	1	p13.jpg	NA	NA	203
116.3	6	5	p22.jpg	1	3.182974	203
126.8	6	1	p4.jpg	1	1.464155	203
138.9	6	5	p20.jpg	2	4.859845	203
147.3	6	1	p10.jpg	1	2.343634	203
155.7	6	5	p1.jpg	2	1.826039	203
165.9	6	1	p23.jpg	1	1.946731	203
176.1	6	5	p12.jpg	5	5.265756	203
185.3	6	1	p14.jpg	2	1.508915	203
194.8	6	5	p5.jpg	3	1.899866	203
203.5	6	5	p16.jpg	3	2.091247	203
214.5	6	5	p21.jpg	3	2.085506	203
222.5	6	1	p6.jpg	2	1.79846	203
232.4	6	5	p18.jpg	2	1.17684	203
3.03	6	1	p2.jpg	6	2.622292	204
12.55	6	5	p5.jpg	5	1.882857	204
22.78	6	5	p16.jpg	6	3.323387	204
31.18	6	5	p21.jpg	5	4.74E-04	204
40.31	6	1	p23.jpg	2	1.552397	204
51.63	6	1	p11.jpg	3	1.881064	204
61.85	6	1	p8.jpg	2	2.601455	204
70.98	6	1	p13.jpg	4	2.161502	204
79.02	6	5	p1.jpg	6	1.765869	204
89.61	6	5	p20.jpg	4	2.483013	204
99.46	6	5	p24.jpg	3	2.684137	204
110.41	6	1	p7.jpg	1	2.694801	204
120.99	6	5	p19.jpg	4	1.906164	204
129.03	6	5	p15.jpg	4	2.131927	204
140.35	6	1	p10.jpg	3	2.587259	204
152.38	6	1	p14.jpg	3	2.359153	204
164.06	6	5	p18.jpg	4	2.296778	204
175.73	6	1	p4.jpg	3	2.460343	204
184.13	6	5	p12.jpg	3	1.580617	204
192.89	6	1	p6.jpg	4	2.147666	204
202.76	6	1	p9.jpg	1	2.712716	204
213.71	6	5	p22.jpg	5	1.480037	204
223.2	6	1	p3.jpg	3	1.587695	204
231.98	6	5	p17.jpg	4	2.356838	204
3.03	6	1	p16.jpg	2	3.544351	205
14.36	6	5	p3.jpg	4	3.163344	205
23.87	6	5	p13.jpg	6	1.682882	205
33.01	6	5	p2.jpg	4	2.786551	205
41.78	6	1	p12.jpg	1	2.948023	205
52.38	6	5	p9.jpg	3	3.556753	205
62.6	6	1	p5.jpg	1	2.808922	205
72.46	6	1	p22.jpg	2	2.210525	205
82.69	6	1	p17.jpg	2	2.483128	205
91.45	6	1	p21.jpg	2	2.908828	205
99.88	6	5	p14.jpg	5	3.355543	205
109.73	6	1	p18.jpg	3	1.96325	205
117.76	6	1	p20.jpg	1	3.873328	205
126.89	6	5	p4.jpg	5	4.383138	205
137.83	6	1	p1.jpg	2	1.949792	205
148.79	6	5	p8.jpg	3	4.235746	205
157.19	6	5	p7.jpg	5	4.195107	205
165.22	6	5	p23.jpg	2	3.688332	205
176.53	6	5	p6.jpg	4	3.654248	205
188.57	6	1	p19.jpg	2	5.286893	205
200.61	6	1	p24.jpg	1	1.693151	205
210.1	6	5	p10.jpg	3	2.203561	205
221.77	6	1	p15.jpg	2	2.249509	205
233.45	6	5	p11.jpg	3	3.022976	205
3	6	5	c4.jpg	3	2.073961	207
12.2	6	1	c10.jpg	3	2.143282	207
22.4	6	5	c3.jpg	4	2.548676	207
32.2	6	1	c6.jpg	1	1.72884	207
43.6	6	1	c8.jpg	3	2.21031	207
55.2	6	5	c5.jpg	4	2.450901	207
63.3	6	5	c23.jpg	5	1.199325	207
73.5	6	1	c16.jpg	4	1.596211	207
81.9	6	5	c24.jpg	6	1.825835	207
92.8	6	5	c20.jpg	4	1.384161	207
104.1	6	5	c14.jpg	3	1.600659	207
112.5	6	1	c11.jpg	2	2.355218	207
124.6	6	1	c2.jpg	3	1.779479	207
134.4	6	1	c13.jpg	2	2.660375	207
142.5	6	5	c7.jpg	3	2.261661	207
154.1	6	1	c19.jpg	3	1.528857	207
165.1	6	5	c15.jpg	5	2.003025	207
177.1	6	1	c18.jpg	3	2.007762	207
187.7	6	1	c17.jpg	2	1.210478	207
197.2	6	5	c22.jpg	5	1.907087	207
207.8	6	1	c1.jpg	4	2.306136	207
216.9	6	5	c9.jpg	4	1.737628	207
225.6	6	5	c12.jpg	5	1.779818	207
235.1	6	1	c21.jpg	2	2.729939	207
3.1	6	1	p6.jpg	1	2.680666	212
14.4	6	5	p24.jpg	5	3.512139	212
24.6	6	5	p20.jpg	5	4.551529	212
34.1	6	1	p4.jpg	3	2.620635	212
46.2	6	5	p16.jpg	6	3.158111	212
54.2	6	5	p15.jpg	6	1.981956	212
64.8	6	5	p21.jpg	4	0.8057365	212
73.9	6	1	p8.jpg	2	2.239237	212
84.5	6	5	p5.jpg	6	2.452966	212
94.4	6	1	p9.jpg	3	3.498062	212
105.3	6	5	p17.jpg	5	2.522736	212
117.3	6	5	p1.jpg	4	2.314738	212
126.1	6	5	p22.jpg	6	3.061396	212
137.8	6	1	p14.jpg	1	2.561148	212
146.9	6	1	p3.jpg	2	1.8673	212
157.1	6	1	p7.jpg	2	1.924343	212
166.6	6	5	p12.jpg	4	3.330551	212
175	6	5	p18.jpg	6	4.187708	212
186.4	6	1	p2.jpg	3	3.095388	212
194.4	6	1	p13.jpg	2	3.29383	212
206.1	6	1	p11.jpg	1	4.134922	212
214.8	6	1	p10.jpg	1	1.558656	212
223.2	6	1	p23.jpg	1	1.320023	212
233.1	6	5	p19.jpg	4	3.645815	212
3	6	1	c5.jpg	1	1.801784	214
11.4	6	1	c3.jpg	1	1.346562	214
19.5	6	5	c8.jpg	5	1.859401	214
28.2	6	1	c12.jpg	2	1.106063	214
38.1	6	5	c19.jpg	6	1.976195	214
49	6	1	c22.jpg	2	2.539608	214
60	6	5	c11.jpg	5	1.498501	214
70.5	6	1	c4.jpg	1	1.845714	214
79.7	6	1	c24.jpg	1	1.264532	214
89.2	6	1	c9.jpg	2	1.452904	214
99.4	6	5	c13.jpg	2	1.852076	214
109.2	6	5	c16.jpg	3	1.858921	214
118.3	6	5	c18.jpg	7	0.9640224	214
126.7	6	5	c10.jpg	5	1.699143	214
138.8	6	1	c23.jpg	5	1.400891	214
147.5	6	5	c1.jpg	2	2.82239	214
157	6	1	c14.jpg	1	1.778556	214
167.6	6	1	c7.jpg	3	2.725934	214
179.3	6	5	c2.jpg	2	2.10978	214
191	6	1	c15.jpg	2	3.115412	214
202.3	6	1	c20.jpg	2	3.357124	214
214.3	6	5	c17.jpg	5	3.900081	214
224.5	6	5	c6.jpg	5	2.38772	214
232.5	6	5	c21.jpg	5	3.173032	214
3.1	6	1	c23.jpg	3	2.662735	216
13.3	6	5	c17.jpg	4	1.874514	216
25.4	6	1	c15.jpg	2	2.576453	216
34.8	6	5	c6.jpg	6	2.557282	216
46.5	6	5	c18.jpg	2	2.998492	216
57.5	6	1	c5.jpg	1	2.439973	216
67.3	6	5	c13.jpg	4	2.492492	216
77.2	6	1	c22.jpg	5	3.286229	216
85.2	6	1	c7.jpg	2	3.001091	216
93.6	6	1	c12.jpg	5	2.281549	216
104.2	6	5	c1.jpg	6	2.533441	216
113	6	5	c2.jpg	4	2.953182	216
122.1	6	5	c21.jpg	5	2.531925	216
132.7	6	1	c14.jpg	1	3.229912	216
144	6	5	c8.jpg	5	1.925018	216
152.4	6	5	c16.jpg	4	2.214551	216
160.4	6	1	c24.jpg	2	2.05872	216
172.1	6	1	c3.jpg	1	3.072434	216
181.2	6	1	c9.jpg	2	2.594358	216
193.3	6	5	c19.jpg	7	1.949396	216
203.5	6	5	c11.jpg	5	1.903621	216
214.8	6	1	c20.jpg	2	2.837246	216
223.6	6	1	c4.jpg	4	2.850332	216
234.5	6	5	c10.jpg	3	2.505987	216
3.1	6	5	c1.jpg	3	3.279325	219
11.5	6	5	c19.jpg	6	2.751461	219
19.5	6	1	c12.jpg	4	2.360469	219
28.3	6	1	c23.jpg	1	1.747912	219
37.4	6	1	c3.jpg	3	1.964022	219
49.1	6	1	c5.jpg	3	1.956833	219
60.4	6	1	c14.jpg	2	2.569669	219
68.8	6	5	c2.jpg	4	1.673423	219
78.7	6	5	c11.jpg	6	3.140895	219
89.3	6	1	c4.jpg	5	2.079529	219
99.1	6	5	c21.jpg	4	1.552524	219
108.6	6	5	c10.jpg	6	3.020412	219
119.6	6	1	c15.jpg	5	1.465955	219
130.5	6	1	c20.jpg	3	1.470931	219
140	6	5	c8.jpg	5	1.541469	219
151.7	6	1	c9.jpg	4	3.288893	219
163.7	6	5	c18.jpg	5	3.63942	219
172.5	6	5	c13.jpg	4	2.089709	219
182.7	6	1	c22.jpg	3	2.123755	219
193.3	6	5	c16.jpg	7	2.330776	219
202.4	6	1	c24.jpg	4	2.335416	219
212.6	6	5	c6.jpg	6	1.866832	219
223.9	6	1	c7.jpg	3	3.330441	219
232	6	5	c17.jpg	7	3.140015	219
3.1	6	5	p17.jpg	4	2.211217	220
14.8	6	1	p9.jpg	2	2.620326	220
23.9	6	5	p15.jpg	6	2.186008	220
33	6	1	p2.jpg	1	2.565329	220
41.4	6	5	p16.jpg	4	2.88854	220
52.4	6	5	p21.jpg	6	2.224361	220
62.2	6	1	p10.jpg	5	1.771598	220
73.9	6	1	p14.jpg	4	1.832733	220
84.9	6	5	p5.jpg	6	1.812343	220
92.9	6	5	p24.jpg	6	2.644471	220
101.3	6	1	p23.jpg	5	1.119481	220
110.1	6	1	p11.jpg	5	2.132888	220
120.7	6	1	p6.jpg	5	4.55E-04	220
132	6	5	p18.jpg	5	4.59E-04	220
140.8	6	1	p13.jpg	5	3.97E-04	220
152.8	6	5	p20.jpg	5	4.61E-04	220
163	6	1	p4.jpg	5	4.20E-04	220
172.9	6	1	p3.jpg	5	4.30E-04	220
182.4	6	1	p7.jpg	5	4.36E-04	220
192.6	6	1	p8.jpg	5	4.71E-04	220
200.7	6	5	p22.jpg	5	4.75E-04	220
210.1	6	5	p19.jpg	5	5.40E-04	220
221.5	6	5	p1.jpg	5	5.23E-04	220
232	6	5	p12.jpg	5	5.10E-04	220
3	6	5	p18.jpg	1	1.670728	221
11.5	6	1	p13.jpg	2	3.349405	221
22.1	6	5	p5.jpg	5	3.272206	221
33.4	6	5	p1.jpg	6	3.120231	221
41.4	6	5	p22.jpg	3	4.731971	221
53.4	6	1	p7.jpg	1	3.718609	221
64.8	6	1	p10.jpg	2	3.342896	221
73.9	6	1	p4.jpg	4	3.291611	221
81.9	6	1	p11.jpg	4	3.14108	221
93.6	6	5	p12.jpg	6	3.563082	221
103.5	6	1	p9.jpg	4	3.944113	221
113.7	6	5	p15.jpg	6	2.684782	221
122.8	6	1	p8.jpg	3	4.135808	221
132.3	6	5	p16.jpg	5	4.414113	221
142.9	6	1	p6.jpg	3	2.41895	221
153.8	6	1	p14.jpg	1	3.472814	221
165.9	6	1	p3.jpg	1	1.874731	221
174.6	6	1	p23.jpg	3	3.842815	221
183	6	5	p24.jpg	5	3.885747	221
193.3	6	5	p21.jpg	6	3.776008	221
202	6	5	p17.jpg	5	0.06793355	221
213.7	6	5	p19.jpg	3	2.932268	221
224.6	6	1	p2.jpg	4	3.747315	221
234.5	6	5	p20.jpg	4	3.209161	221
3.03	6	5	p10.jpg	4	3.49893	223
13.64	6	5	p9.jpg	4	1.680804	223
22.41	6	1	p18.jpg	1	1.135983	223
31.92	6	1	p16.jpg	1	1.074172	223
39.96	6	5	p6.jpg	2	2.29941	223
50.19	6	5	p7.jpg	4	2.607389	223
61.13	6	5	p3.jpg	4	1.025165	223
69.53	6	5	p2.jpg	2	3.819324	223
78.67	6	1	p1.jpg	1	1.014957	223
87.07	6	1	p22.jpg	1	1.605017	223
98.75	6	5	p4.jpg	3	2.532652	223
106.79	6	5	p13.jpg	4	2.240545	223
118.46	6	1	p17.jpg	1	1.741802	223
129.05	6	1	p12.jpg	1	0.860556	223
140	6	1	p21.jpg	3	1.701022	223
151.32	6	5	p11.jpg	4	1.903672	223
160.82	6	5	p8.jpg	5	2.05284	223
170.67	6	1	p5.jpg	1	1.046374	223
179.8	6	1	p24.jpg	2	2.796859	223
190.03	6	1	p20.jpg	2	2.028623	223
202.07	6	5	p14.jpg	3	1.492948	223
214.11	6	5	p23.jpg	4	2.1298	223
225.42	6	1	p15.jpg	3	3.094054	223
234.19	6	1	p19.jpg	1	0.845835	223
3	6	5	p22.jpg	5	1.218173	224
13.2	6	5	p5.jpg	3	1.719448	224
22.7	6	5	p19.jpg	6	2.390132	224
31.5	6	5	p24.jpg	5	1.550147	224
42.8	6	5	p12.jpg	6	1.562775	224
51.2	6	1	p23.jpg	4	2.377342	224
61.4	6	5	p16.jpg	2	3.016939	224
71.3	6	5	p15.jpg	4	2.032492	224
80.4	6	1	p2.jpg	1	1.813223	224
88.8	6	1	p9.jpg	3	1.479896	224
99.4	6	5	p18.jpg	3	2.189651	224
110	6	1	p4.jpg	2	1.752735	224
120.9	6	5	p1.jpg	4	2.126201	224
132.6	6	1	p7.jpg	1	2.040595	224
144.3	6	1	p14.jpg	2	1.067881	224
153.8	6	5	p21.jpg	3	1.986092	224
161.8	6	1	p13.jpg	3	1.903314	224
170.9	6	1	p6.jpg	3	1.683699	224
179.7	6	5	p17.jpg	3	2.356796	224
191.7	6	1	p8.jpg	3	1.203266	224
201.6	6	5	p20.jpg	4	1.488642	224
212.6	6	1	p10.jpg	2	1.168676	224
224.6	6	1	p11.jpg	3	1.625466	224
235.9	6	1	p3.jpg	3	2.099185	224
3	6	1	c4.jpg	1	1.538652	225
14.7	6	5	c11.jpg	5	1.394274	225
23.5	6	5	c6.jpg	6	2.471932	225
35.2	6	5	c16.jpg	4	2.589932	225
43.2	6	5	c18.jpg	6	2.744595	225
53.4	6	1	c23.jpg	1	1.847673	225
63.6	6	5	c8.jpg	5	2.321896	225
72.7	6	1	c15.jpg	2	2.393909	225
84.8	6	5	c17.jpg	5	2.671998	225
94.6	6	1	c12.jpg	1	1.688882	225
105.2	6	1	c3.jpg	1	1.753081	225
114.4	6	1	c5.jpg	1	2.86306	225
123.1	6	5	c2.jpg	7	2.557115	225
134.4	6	1	c20.jpg	1	2.170104	225
145.8	6	1	c24.jpg	1	2.302295	225
155.6	6	5	c1.jpg	2	2.087258	225
167.6	6	1	c9.jpg	1	1.381973	225
176	6	1	c22.jpg	1	1.069643	225
187	6	5	c19.jpg	5	3.121524	225
195.4	6	1	c7.jpg	1	2.57256	225
203.4	6	5	c10.jpg	4	1.349429	225
212.9	6	5	c21.jpg	5	2.810178	225
223.9	6	5	c13.jpg	2	2.355699	225
234.5	6	1	c14.jpg	1	1.864985	225
3.1	6	1	p20.jpg	2	1.885994	226
13.3	6	5	p7.jpg	4	1.778703	226
22.8	6	5	p13.jpg	6	1.477064	226
31.9	6	5	p6.jpg	3	1.42473	226
43.3	6	1	p21.jpg	4	1.239369	226
52.8	6	5	p2.jpg	5	1.406507	226
63.7	6	1	p19.jpg	4	1.319573	226
74.7	6	1	p5.jpg	1	1.147132	226
86.7	6	1	p24.jpg	1	1.479288	226
98.4	6	5	p14.jpg	2	1.848756	226
107.1	6	1	p15.jpg	2	1.982087	226
116.3	6	1	p12.jpg	1	1.185964	226
127.6	6	1	p22.jpg	1	1.99524	226
135.6	6	5	p3.jpg	3	1.131263	226
144	6	5	p4.jpg	4	1.380284	226
154.6	6	1	p16.jpg	2	1.86254	226
163	6	5	p8.jpg	6	1.226995	226
174.7	6	1	p18.jpg	4	1.445518	226
185.3	6	5	p11.jpg	5	1.259887	226
197.3	6	5	p9.jpg	4	1.722913	226
205.4	6	1	p1.jpg	1	1.696854	226
215.3	6	1	p17.jpg	1	1.579246	226
224	6	5	p23.jpg	4	1.797032	226
234.2	6	5	p10.jpg	1	2.147539	226
3	6	5	p10.jpg	5	2.381986	227
12.6	6	1	p15.jpg	2	3.106978	227
21	6	5	p2.jpg	4	1.592332	227
31.2	6	1	p20.jpg	1	2.462532	227
42.9	6	1	p22.jpg	1	2.712432	227
52	6	1	p18.jpg	2	4.320522	227
61.9	6	1	p5.jpg	1	1.715037	227
69.9	6	5	p11.jpg	5	2.96253	227
80.5	6	5	p8.jpg	4	2.584094	227
91.8	6	1	p19.jpg	1	2.992921	227
103.1	6	1	p17.jpg	1	3.226955	227
114.1	6	1	p21.jpg	2	2.569863	227
123.6	6	1	p24.jpg	2	5.763627	227
132.3	6	5	p23.jpg	3	1.912953	227
140.4	6	5	p6.jpg	3	2.042314	227
152.4	6	1	p1.jpg	1	2.693208	227
164.4	6	5	p7.jpg	4	1.842723	227
174.3	6	5	p14.jpg	1	3.055467	227
183.4	6	1	p12.jpg	2	2.722095	227
194	6	5	p9.jpg	4	1.95455	227
202.8	6	5	p4.jpg	3	2.163444	227
213.7	6	5	p3.jpg	4	2.117529	227
225.4	6	1	p16.jpg	1	3.944165	227
235.7	6	5	p13.jpg	5	1.65083	227
3	6	5	p7.jpg	6	2.917227	228
11.4	6	5	p11.jpg	7	4.190365	228
23.5	6	5	p9.jpg	5	3.546038	228
32.2	6	1	p5.jpg	3	4.178327	228
41	6	1	p16.jpg	1	5.342922	228
51.6	6	5	p6.jpg	5	3.15444	228
62.2	6	1	p15.jpg	4	3.012081	228
72.4	6	1	p20.jpg	3	4.224032	228
80.4	6	5	p3.jpg	5	3.156315	228
89.6	6	5	p13.jpg	4	5.042053	228
99	6	5	p14.jpg	5	3.585208	228
110	6	1	p17.jpg	1	5.598655	228
120.9	6	5	p2.jpg	3	2.476874	228
129	6	1	p12.jpg	1	4.379638	228
138.1	6	1	p19.jpg	2	4.865696	228
148	6	1	p21.jpg	2	2.701933	228
156.4	6	5	p4.jpg	5	3.490716	228
167.7	6	5	p10.jpg	2	5.365626	228
179.3	6	1	p1.jpg	NA	NA	228
191	6	1	p24.jpg	1	1.699815	228
200.5	6	1	p18.jpg	1	3.748715	228
211.8	6	1	p22.jpg	2	5.99265	228
223.9	6	5	p23.jpg	NA	NA	228
234.1	6	5	p8.jpg	5	1.837688	228
3.1	6	1	p11.jpg	6	3.176019	229
11.1	6	5	p18.jpg	6	1.364653	229
20.3	6	5	p19.jpg	5	1.449067	229
28.3	6	5	p15.jpg	5	2.354309	229
38.2	6	5	p16.jpg	4	1.253279	229
50.2	6	1	p4.jpg	2	3.48217	229
61.5	6	1	p9.jpg	1	2.538136	229
72.1	6	1	p10.jpg	3	4.936342	229
83.8	6	1	p23.jpg	4	2.58248	229
93.7	6	1	p13.jpg	4	2.166412	229
103.1	6	1	p3.jpg	2	4.052305	229
115.2	6	1	p7.jpg	1	3.787437	229
124.3	6	5	p21.jpg	5	3.52778	229
136	6	5	p12.jpg	6	3.413896	229
146.6	6	5	p1.jpg	4	4.011649	229
155	6	5	p5.jpg	4	2.41053	229
163.7	6	1	p6.jpg	3	2.036996	229
174	6	1	p14.jpg	4	3.20502	229
182.4	6	5	p24.jpg	6	2.71319	229
193.7	6	5	p17.jpg	4	2.799734	229
204.6	6	1	p2.jpg	1	0.9797861	229
215.6	6	1	p8.jpg	3	2.09436	229
224.4	6	5	p20.jpg	4	4.139069	229
234.6	6	5	p22.jpg	6	3.678422	229