onset	duration	trial_type	response	response_time	stim	sub
3.1	6	5_inacc	1	2.417061	c2.jpg	105
13	6	1_acc	1	1.880557	c3.jpg	105
24.7	6	1_inacc	2	2.61536	c14.jpg	105
32.8	6	1_acc	3	3.029251	c23.jpg	105
42.4	6	5_inacc	1	3.654513	c13.jpg	105
52.6	6	1_acc	3	2.941063	c5.jpg	105
61.8	6	5_acc	4	2.561064	c21.jpg	105
73.5	6	1_acc	1	3.181001	c12.jpg	105
84.8	6	1_acc	2	2.166321	c22.jpg	105
93.3	6	5_inacc	2	2.951628	c6.jpg	105
104.2	6	5_inacc	2	3.492348	c10.jpg	105
114.9	6	5_inacc	3	4.27028	c16.jpg	105
123.3	6	1_inacc	1	1.855031	c15.jpg	105
132.1	6	5_inacc	4	3.286761	c1.jpg	105
140.2	6	5_inacc	3	2.472816	c8.jpg	105
149.7	6	1_acc	4	3.400047	c9.jpg	105
160	6	1_acc	4	3.071497	c24.jpg	105
170.6	6	1_inacc	2	3.552599	c4.jpg	105
181.6	6	5_inacc	3	3.417953	c18.jpg	105
192.9	6	5_acc	2	2.325867	c11.jpg	105
201.7	6	1_inacc	3	3.397749	c7.jpg	105
211.6	6	5_inacc	4	3.335034	c17.jpg	105
220.8	6	1_acc	1	2.622069	c20.jpg	105
232.8	6	5_inacc	2	4.045324	c19.jpg	105
3.112	6	1_acc	4	3.06343	c23.jpg	106
15.245	6	1_acc	2	3.551259	c7.jpg	106
26.965	6	1_inacc	4	2.456171	c15.jpg	106
35.062	6	5_inacc	4	3.877175	c1.jpg	106
46.061	6	1_inacc	2	1.739043	c22.jpg	106
54.507	6	1_inacc	4	3.880937	c5.jpg	106
63.685	6	1_inacc	1	3.546552	c14.jpg	106
74.309	6	5_acc	2	1.852137	c21.jpg	106
84.921	6	5_acc	1	3.432949	c10.jpg	106
94.806	6	1_inacc	1	2.01833	c4.jpg	106
104.707	6	5_inacc	3	3.133418	c17.jpg	106
114.968	6	1_acc	3	2.918111	c9.jpg	106
123.775	6	1_inacc	4	2.37884	c12.jpg	106
134.031	6	5_acc	4	2.186778	c8.jpg	106
142.843	6	5_acc	4	3.295053	c13.jpg	106
150.92	6	5_acc	1	2.061987	c11.jpg	106
160.079	6	1_inacc	4	3.724082	c24.jpg	106
171.419	6	5_acc	4	3.744563	c19.jpg	106
182.769	6	1_inacc	2	2.254219	c3.jpg	106
193.779	6	5_inacc	2	4.81083	c6.jpg	106
202.199	6	5_inacc	4	3.90233	c18.jpg	106
213.889	6	5_inacc	1	3.644174	c16.jpg	106
223.419	6	5_inacc	4	4.039941	c2.jpg	106
235.489	6	1_inacc	1	3.745522	c20.jpg	106
3.07	6	5_inacc	1	2.24734	c3.jpg	111
15.16	6	1_acc	1	1.440549	c13.jpg	111
26.51	6	1_acc	4	2.162534	c21.jpg	111
38.21	6	5_acc	3	2.757815	c15.jpg	111
49.19	6	5_acc	1	1.306143	c12.jpg	111
58.35	6	5_acc	3	1.30111	c20.jpg	111
67.14	6	1_acc	4	2.866385	c6.jpg	111
76.3	6	5_inacc	3	3.790931	c4.jpg	111
86.19	6	5_acc	2	1.129683	c9.jpg	111
97.52	6	5_acc	2	2.746267	c23.jpg	111
105.95	6	1_inacc	3	3.959694	c19.jpg	111
114.37	6	1_inacc	4	3.955819	c10.jpg	111
125.36	6	1_inacc	3	2.243138	c8.jpg	111
135.98	6	1_acc	3	2.760252	c2.jpg	111
145.51	6	1_acc	3	2.715287	c11.jpg	111
157.58	6	1_inacc	2	3.734122	c18.jpg	111
167.45	6	5_acc	2	1.514923	c24.jpg	111
175.53	6	5_acc	3	4.176347	c7.jpg	111
185.78	6	5_acc	3	2.578037	c14.jpg	111
195.3	6	1_inacc	1	3.605931	c16.jpg	111
203.38	6	1_acc	4	2.179771	c1.jpg	111
212.19	6	5_inacc	3	3.831103	c5.jpg	111
222.8	6	1_acc	4	3.814735	c17.jpg	111
233.05	6	5_inacc	1	1.86269	c22.jpg	111
3.07	6	5_inacc	4	2.659953	c22.jpg	114
12.26	6	1_acc	4	3.310928	c1.jpg	114
20.69	6	1_acc	1	3.681266	c10.jpg	114
30.22	6	1_inacc	2	4.043458	c2.jpg	114
40.47	6	1_inacc	1	2.417679	c11.jpg	114
51.09	6	1_inacc	4	2.395995	c17.jpg	114
60.98	6	5_acc	1	2.487035	c5.jpg	114
72.32	6	1_acc	2	2.458184	c16.jpg	114
80.38	6	5_acc	1	1.389721	c24.jpg	114
92.08	6	5_acc	4	3.448619	c20.jpg	114
101.6	6	5_inacc	2	5.011372	c14.jpg	114
112.21	6	1_inacc	4	2.212459	c8.jpg	114
124.28	6	1_acc	1	3.478623	c19.jpg	114
133.06	6	1_acc	1	4.385498	c13.jpg	114
144.4	6	1_acc	2	3.830861	c18.jpg	114
153.55	6	1_inacc	2	2.640505	c6.jpg	114
164.52	6	5_acc	4	1.06491	c9.jpg	114
173.32	6	5_acc	1	5.954927	c23.jpg	114
185.4	6	5_acc	4	3.728123	c3.jpg	114
195.67	6	1_acc	2	4.844026	c21.jpg	114
207.37	6	5_acc	1	1.188256	c12.jpg	114
218.34	6	5_acc	4	1.699194	c15.jpg	114
226.41	6	5_acc	1	1.28546	c4.jpg	114
236.3	6	5_inacc	1	3.861484	c7.jpg	114
3.083	6	5_inacc	4	3.810186	c24.jpg	115
13.015	6	1_acc	1	1.523549	c17.jpg	115
24.008	6	1_inacc	1	1.791189	c11.jpg	115
33.909	6	5_acc	3	2.772585	c22.jpg	115
43.075	6	5_acc	1	2.557721	c3.jpg	115
54.449	6	1_acc	3	2.257146	c2.jpg	115
65.105	6	1_inacc	3	2.676796	c19.jpg	115
76.845	6	1_acc	3	2.723967	c1.jpg	115
88.182	6	5_acc	1	1.991926	c23.jpg	115
99.894	6	5_acc	3	2.492934	c7.jpg	115
107.974	6	5_acc	4	2.706945	c15.jpg	115
116.773	6	5_inacc	4	2.640201	c12.jpg	115
127.77	6	5_acc	4	2.783773	c20.jpg	115
137.307	6	1_inacc	2	3.004661	c18.jpg	115
145.38	6	1_acc	4	2.390907	c16.jpg	115
157.444	6	5_inacc	1	2.851463	c4.jpg	115
168.068	6	5_acc	3	2.425408	c5.jpg	115
178.341	6	1_acc	1	1.576304	c6.jpg	115
187.129	6	1_acc	1	3.140431	c21.jpg	115
196.647	6	5_acc	2	2.031567	c14.jpg	115
208.718	6	5_acc	2	1.308289	c9.jpg	115
217.147	6	1_acc	1	1.960708	c8.jpg	115
226.3	6	1_inacc	1	3.421327	c10.jpg	115
234.741	6	1_acc	4	2.193078	c13.jpg	115
3	6	1_acc	4	4.484661	c10.jpg	118
14.7	6	1_inacc	3	5.286209	c13.jpg	118
25.7	6	1_inacc	1	3.181608	c17.jpg	118
37.8	6	1_acc	4	5.050971	c11.jpg	118
45.9	6	5_acc	3	2.699802	c24.jpg	118
54.7	6	1_inacc	3	3.356542	c18.jpg	118
63.9	6	1_inacc	4	2.759042	c1.jpg	118
72.3	6	5_acc	3	2.179774	c7.jpg	118
82.6	6	5_inacc	1	3.172204	c23.jpg	118
92.1	6	1_acc	4	3.148361	c6.jpg	118
102	6	5_acc	2	3.21823	c5.jpg	118
114	6	5_acc	2	4.092548	c22.jpg	118
122.1	6	5_acc	4	3.701069	c3.jpg	118
133.1	6	1_inacc	2	4.856351	c8.jpg	118
143.3	6	1_acc	2	4.340113	c16.jpg	118
152.1	6	5_inacc	2	4.082317	c4.jpg	118
161.2	6	5_acc	4	2.606998	c12.jpg	118
172.6	6	5_acc	3	3.388111	c20.jpg	118
182.5	6	1_inacc	4	4.088904	c19.jpg	118
192	6	1_acc	3	1.807604	c2.jpg	118
203.3	6	5_acc	2	2.746301	c15.jpg	118
214	6	5_inacc	2	4.170401	c14.jpg	118
222.4	6	5_acc	1	3.517687	c9.jpg	118
234.1	6	1_inacc	1	4.08688	c21.jpg	118
3.1	6	5_acc	2	3.386098	c5.jpg	121
12.6	6	5_miss	NA	NA	c24.jpg	121
21.8	6	1_acc	1	2.647453	c13.jpg	121
31	6	1_acc	4	5.311292	c19.jpg	121
40.5	6	5_acc	1	4.718759	c4.jpg	121
51.5	6	1_acc	1	5.240641	c6.jpg	121
61.7	6	1_acc	3	4.722528	c16.jpg	121
72.7	6	1_inacc	2	4.148199	c8.jpg	121
84	6	5_miss	NA	NA	c14.jpg	121
94.3	6	1_inacc	3	2.880649	c2.jpg	121
106	6	1_inacc	3	4.195849	c21.jpg	121
114	6	1_inacc	3	5.010502	c10.jpg	121
123.9	6	5_acc	2	3.12039	c9.jpg	121
135.3	6	5_acc	2	2.792142	c20.jpg	121
143.3	6	5_acc	4	2.532017	c23.jpg	121
152.1	6	5_inacc	1	3.815482	c7.jpg	121
162	6	5_acc	4	3.549622	c12.jpg	121
174.1	6	5_inacc	1	4.215922	c3.jpg	121
184.7	6	1_acc	2	3.485086	c17.jpg	121
193.5	6	1_miss	NA	NA	c18.jpg	121
205.6	6	1_acc	2	4.965175	c1.jpg	121
216.2	6	5_acc	1	4.793729	c15.jpg	121
227.9	6	5_inacc	2	4.275112	c22.jpg	121
236.3	6	1_inacc	1	5.874347	c11.jpg	121
3.1	6	1_inacc	1	4.915654	c2.jpg	122
13.3	6	1_acc	4	4.751458	c19.jpg	122
25.4	6	1_acc	3	4.855524	c21.jpg	122
35.3	6	1_acc	3	2.063463	c17.jpg	122
44.5	6	5_inacc	4	3.790222	c3.jpg	122
55.4	6	5_acc	1	1.56252	c24.jpg	122
66.8	6	5_acc	4	5.082624	c15.jpg	122
75.9	6	5_acc	1	4.159435	c4.jpg	122
85.8	6	5_acc	3	5.730587	c23.jpg	122
94.2	6	5_acc	2	4.95278	c5.jpg	122
104.5	6	1_acc	1	4.044967	c10.jpg	122
113.3	6	5_inacc	3	2.226546	c9.jpg	122
121.4	6	1_inacc	1	3.323485	c13.jpg	122
132.7	6	1_inacc	1	2.218856	c16.jpg	122
141.1	6	1_inacc	4	3.294844	c1.jpg	122
151.8	6	5_acc	4	4.310776	c14.jpg	122
163.4	6	1_inacc	4	3.914488	c18.jpg	122
174.4	6	1_inacc	4	4.927569	c8.jpg	122
186.1	6	5_acc	1	2.861568	c22.jpg	122
194.9	6	5_acc	3	3.528503	c12.jpg	122
207	6	1_acc	2	4.1415	c11.jpg	122
216.5	6	5_acc	1	2.56087	c20.jpg	122
226	6	5_inacc	1	4.827243	c7.jpg	122
236.7	6	1_acc	1	3.963776	c6.jpg	122
3.07	6	5_acc	4	3.627053	c12.jpg	125
11.9	6	1_inacc	4	4.269849	c13.jpg	125
22.52	6	5_acc	1	1.210946	c3.jpg	125
32.05	6	5_acc	1	2.55894	c7.jpg	125
41.93	6	1_inacc	4	3.960842	c10.jpg	125
52.19	6	1_inacc	4	4.02335	c2.jpg	125
62.08	6	5_inacc	2	5.799265	c4.jpg	125
70.51	6	5_acc	1	1.729264	c22.jpg	125
81.86	6	5_inacc	3	4.982293	c14.jpg	125
92.84	6	1_acc	2	4.25949	c16.jpg	125
104.92	6	1_acc	3	2.656947	c6.jpg	125
113.71	6	5_acc	3	3.676396	c24.jpg	125
125.78	6	1_acc	4	4.162947	c21.jpg	125
137.12	6	5_acc	4	2.189671	c15.jpg	125
147.4	6	1_inacc	2	4.050908	c11.jpg	125
155.46	6	5_acc	3	3.889996	c5.jpg	125
167.17	6	1_inacc	2	3.2255	c8.jpg	125
178.15	6	5_acc	2	3.711795	c23.jpg	125
188.76	6	5_inacc	2	4.309932	c20.jpg	125
197.91	6	1_acc	2	5.323453	c19.jpg	125
207.07	6	1_acc	3	3.014565	c17.jpg	125
215.48	6	1_inacc	1	4.727946	c18.jpg	125
227.19	6	5_acc	1	5.736981	c9.jpg	125
235.26	6	1_inacc	4	4.944756	c1.jpg	125
3.09	6	5_miss	NA	NA	c16.jpg	127
14.46	6	1_acc	4	1.88439	c20.jpg	127
22.92	6	1_inacc	4	4.719991	c23.jpg	127
31.01	6	1_acc	3	2.823368	c4.jpg	127
42.39	6	5_acc	3	4.092569	c2.jpg	127
54.13	6	5_inacc	1	4.842747	c11.jpg	127
65.11	6	5_acc	1	3.569883	c6.jpg	127
75.74	6	1_inacc	4	3.008686	c14.jpg	127
85.27	6	1_inacc	2	3.132812	c5.jpg	127
97.36	6	1_inacc	4	2.997404	c9.jpg	127
107.61	6	1_inacc	3	2.416896	c12.jpg	127
119.31	6	5_inacc	1	4.617985	c8.jpg	127
127.39	6	5_acc	3	4.080009	c10.jpg	127
136.18	6	5_acc	2	4.151846	c21.jpg	127
146.42	6	1_inacc	1	4.673221	c22.jpg	127
157.4	6	1_inacc	2	3.276479	c24.jpg	127
168.02	6	1_inacc	1	4.370959	c3.jpg	127
177.91	6	5_inacc	1	4.910056	c13.jpg	127
186.34	6	1_inacc	2	3.170849	c15.jpg	127
195.49	6	5_inacc	1	4.735686	c19.jpg	127
205.39	6	5_acc	4	1.349036	c17.jpg	127
214.92	6	5_acc	1	2.378805	c18.jpg	127
226.99	6	1_inacc	2	3.382042	c7.jpg	127
235.8	6	5_inacc	1	4.155052	c1.jpg	127
3	6	5_acc	2	2.487412	c8.jpg	132
12.6	6	1_acc	2	3.777001	c23.jpg	132
21.7	6	5_inacc	1	3.84638	c6.jpg	132
30.2	6	5_acc	1	3.265349	c10.jpg	132
41.9	6	1_inacc	1	4.162087	c12.jpg	132
52.1	6	1_acc	3	2.94676	c9.jpg	132
63.1	6	5_inacc	4	3.505002	c1.jpg	132
71.2	6	5_acc	3	4.58896	c11.jpg	132
80.3	6	5_acc	2	3.475024	c2.jpg	132
90.6	6	1_acc	1	2.85575	c24.jpg	132
101.2	6	5_acc	1	3.31725	c17.jpg	132
111.1	6	1_inacc	3	5.050825	c15.jpg	132
121	6	1_inacc	2	5.336981	c7.jpg	132
133	6	1_inacc	3	3.02215	c5.jpg	132
144.4	6	5_acc	1	3.48088	c18.jpg	132
155.3	6	5_acc	3	3.796983	c13.jpg	132
167.4	6	5_acc	1	1.898213	c16.jpg	132
178.7	6	1_inacc	3	4.694396	c3.jpg	132
187.2	6	1_inacc	2	4.985243	c14.jpg	132
198.9	6	5_acc	3	3.291918	c19.jpg	132
207.7	6	1_inacc	2	2.417765	c4.jpg	132
217.2	6	5_acc	1	4.45532	c21.jpg	132
227.8	6	1_inacc	2	5.013936	c20.jpg	132
236.6	6	1_inacc	2	3.841084	c22.jpg	132
3.106	6	1_acc	1	2.680797	c4.jpg	134
12.31	6	5_acc	2	1.67858	c1.jpg	134
22.583	6	5_acc	3	3.55237	c6.jpg	134
33.552	6	5_acc	1	2.232077	c21.jpg	134
44.916	6	1_acc	3	3.523199	c7.jpg	134
55.891	6	1_inacc	1	2.448319	c9.jpg	134
64.699	6	5_inacc	3	2.796107	c2.jpg	134
72.774	6	1_inacc	3	2.259903	c22.jpg	134
84.129	6	5_inacc	3	2.187471	c10.jpg	134
93.294	6	1_acc	3	3.510875	c20.jpg	134
101.378	6	1_acc	1	4.52E-04	c24.jpg	134
109.798	6	5_acc	4	3.346778	c16.jpg	134
121.51	6	5_acc	1	3.10582	c19.jpg	134
131.394	6	5_inacc	1	3.98E-04	c18.jpg	134
142.018	6	1_acc	2	2.058248	c3.jpg	134
154.085	6	5_acc	1	1.294452	c8.jpg	134
162.521	6	5_acc	2	2.304078	c13.jpg	134
171.323	6	1_acc	4	4.035431	c5.jpg	134
181.57	6	1_inacc	4	2.548723	c12.jpg	134
193.276	6	5_inacc	3	3.859069	c17.jpg	134
202.799	6	1_acc	2	2.64759	c15.jpg	134
212.685	6	1_acc	4	5.141734	c14.jpg	134
223.309	6	5_inacc	4	3.540725	c11.jpg	134
235.373	6	1_acc	4	3.859644	c23.jpg	134
3.1	6	1_inacc	2	3.84497	c17.jpg	135
11.6	6	1_inacc	1	3.242732	c19.jpg	135
22.2	6	5_inacc	4	3.557635	c22.jpg	135
33.6	6	5_inacc	1	2.676148	c4.jpg	135
43.1	6	5_inacc	2	4.309275	c24.jpg	135
51.2	6	5_inacc	4	3.368631	c5.jpg	135
63.3	6	5_inacc	2	1.947763	c23.jpg	135
74.2	6	1_acc	1	2.613465	c13.jpg	135
82.3	6	1_acc	3	4.966788	c1.jpg	135
92.6	6	5_inacc	3	3.711354	c9.jpg	135
103.2	6	5_inacc	2	2.301777	c15.jpg	135
113.5	6	5_acc	4	3.072593	c3.jpg	135
122.3	6	5_acc	1	2.491554	c20.jpg	135
130.8	6	1_inacc	4	2.926374	c11.jpg	135
142.1	6	5_inacc	2	3.062626	c12.jpg	135
152	6	5_inacc	1	4.594233	c7.jpg	135
161.1	6	1_inacc	3	5.277438	c16.jpg	135
172.9	6	1_miss	NA	NA	c21.jpg	135
184.9	6	1_inacc	2	1.83658	c18.jpg	135
194.8	6	1_inacc	4	3.215668	c6.jpg	135
203.9	6	5_acc	1	3.200107	c14.jpg	135
215.7	6	1_acc	4	5.142282	c2.jpg	135
226.6	6	1_inacc	2	3.922243	c10.jpg	135
236.2	6	1_miss	NA	NA	c8.jpg	135
3	6	5_inacc	3	2.91	c23.jpg	141
15	6	1_inacc	2	2.38	c16.jpg	141
25.6	6	5_acc	2	2.97	c20.jpg	141
35.7	6	5_acc	4	1.5	c24.jpg	141
47	6	1_acc	1	2	c19.jpg	141
58.3	6	5_acc	4	2.69	c4.jpg	141
68.8	6	1_acc	1	1.88	c18.jpg	141
80.8	6	5_acc	2	2	c5.jpg	141
89.6	6	1_inacc	1	2.39	c6.jpg	141
98.3	6	5_acc	4	1.73	c9.jpg	141
108	6	1_acc	2	2.77	c17.jpg	141
116	6	1_inacc	3	2.91	c2.jpg	141
124	6	5_acc	2	1.63	c22.jpg	141
132	6	1_inacc	2	2.35	c11.jpg	141
141	6	1_acc	4	2.16	c13.jpg	141
152	6	1_acc	2	2.86	c21.jpg	141
162	6	5_inacc	2	2.41	c12.jpg	141
174	6	1_inacc	4	2.46	c8.jpg	141
184	6	1_inacc	3	3.02	c10.jpg	141
195	6	1_inacc	4	2.26	c1.jpg	141
205	6	5_acc	3	2.68	c7.jpg	141
214	6	5_acc	4	1.5	c3.jpg	141
222	6	5_inacc	2	3.28	c14.jpg	141
232	6	5_acc	2	3.26	c15.jpg	141
3.1	6	5_acc	4	2.283368	c8.jpg	143
15.1	6	1_inacc	4	3.755404	c12.jpg	143
26.5	6	5_acc	4	1.633394	c10.jpg	143
35.6	6	1_inacc	1	3.352473	c20.jpg	143
45.9	6	5_acc	3	3.351301	c18.jpg	143
54.7	6	1_acc	4	2.121253	c15.jpg	143
66.7	6	1_inacc	3	3.207969	c24.jpg	143
74.8	6	5_acc	3	4.377163	c13.jpg	143
86.5	6	1_inacc	2	3.748426	c5.jpg	143
95.7	6	1_acc	3	2.178547	c3.jpg	143
106.3	6	5_acc	2	1.993539	c2.jpg	143
117.3	6	5_acc	1	1.612502	c17.jpg	143
125.4	6	1_inacc	1	2.957666	c22.jpg	143
134.9	6	5_acc	1	2.341599	c21.jpg	143
144.8	6	1_inacc	1	2.777238	c4.jpg	143
153.2	6	5_acc	3	3.79291	c11.jpg	143
164.5	6	1_acc	2	4.318303	c9.jpg	143
175.5	6	5_inacc	3	3.973107	c1.jpg	143
183.9	6	5_inacc	2	3.219172	c19.jpg	143
194.2	6	5_acc	3	4.581077	c6.jpg	143
203.7	6	1_acc	3	3.450625	c23.jpg	143
212.5	6	1_acc	2	3.248509	c7.jpg	143
222.4	6	5_inacc	2	4.160501	c16.jpg	143
233	6	1_acc	4	2.869034	c14.jpg	143
3.1	6	5_inacc	4	3.192746	c2.jpg	146
14.13	6	5_acc	1	2.080644	c8.jpg	146
22.94	6	5_inacc	3	2.389666	c17.jpg	146
33.21	6	1_inacc	4	2.916281	c22.jpg	146
44.93	6	1_acc	2	3.151779	c24.jpg	146
53.73	6	1_inacc	4	3.661179	c15.jpg	146
61.82	6	1_inacc	4	4.344766	c12.jpg	146
71.71	6	5_acc	3	2.462992	c10.jpg	146
81.62	6	5_acc	1	3.024928	c11.jpg	146
90.78	6	1_inacc	2	3.390783	c7.jpg	146
100.29	6	5_acc	2	3.65819	c13.jpg	146
111.64	6	5_inacc	1	2.53169	c1.jpg	146
123.34	6	1_acc	3	3.609139	c9.jpg	146
134.68	6	1_inacc	2	3.206418	c23.jpg	146
144.92	6	5_acc	2	2.677754	c21.jpg	146
153.39	6	1_inacc	1	2.855931	c3.jpg	146
162.55	6	1_acc	2	3.391326	c4.jpg	146
173.17	6	5_acc	4	3.623653	c19.jpg	146
181.27	6	1_inacc	4	2.649687	c14.jpg	146
192.25	6	5_acc	3	2.399028	c6.jpg	146
201.77	6	1_acc	2	3.569743	c20.jpg	146
210.21	6	5_inacc	3	4.472548	c16.jpg	146
222.28	6	1_inacc	2	3.395096	c5.jpg	146
234.34	6	5_inacc	2	3.781221	c18.jpg	146
3.1	6	5_miss	NA	NA	c23.jpg	147
15.2	6	5_acc	1	3.093358	c15.jpg	147
26.1	6	5_inacc	1	3.101565	c24.jpg	147
35.7	6	1_inacc	3	5.097994	c19.jpg	147
44.5	6	1_inacc	2	3.146982	c6.jpg	147
53.6	6	1_inacc	1	2.98554	c17.jpg	147
64.2	6	1_inacc	1	4.920442	c16.jpg	147
74.5	6	5_inacc	1	4.342116	c3.jpg	147
82.5	6	5_inacc	3	4.366672	c22.jpg	147
91.7	6	5_acc	3	2.578025	c4.jpg	147
103	6	5_inacc	1	3.708855	c5.jpg	147
111.4	6	1_acc	4	3.659151	c11.jpg	147
122.4	6	1_acc	1	3.0754	c2.jpg	147
130.9	6	1_acc	1	4.07004	c1.jpg	147
142.2	6	1_inacc	3	3.992327	c10.jpg	147
154.3	6	5_inacc	1	4.282772	c12.jpg	147
164.2	6	5_acc	3	5.311745	c7.jpg	147
174.8	6	1_acc	2	4.658114	c21.jpg	147
184.7	6	1_acc	3	3.013814	c8.jpg	147
194.2	6	1_inacc	2	4.012369	c18.jpg	147
202.2	6	1_inacc	4	4.272915	c13.jpg	147
213.9	6	5_acc	1	5.273429	c20.jpg	147
222.7	6	5_acc	4	3.483052	c9.jpg	147
234.4	6	5_inacc	1	3.595169	c14.jpg	147
3.1	6	5_inacc	1	4.016541	c7.jpg	151
12.6	6	1_acc	1	3.839278	c8.jpg	151
21.1	6	5_acc	4	2.8591	c9.jpg	151
32.4	6	1_acc	3	1.942157	c13.jpg	151
41.3	6	5_acc	1	1.449309	c24.jpg	151
51.2	6	5_acc	2	1.81676	c23.jpg	151
60	6	5_acc	1	1.227627	c3.jpg	151
68	6	1_inacc	2	3.583327	c19.jpg	151
79	6	1_acc	2	1.344642	c18.jpg	151
88.5	6	1_acc	4	2.606203	c11.jpg	151
98.8	6	1_inacc	3	4.912212	c16.jpg	151
110.5	6	5_acc	4	2.013856	c4.jpg	151
121.5	6	5_acc	1	1.4449	c5.jpg	151
129.9	6	1_acc	1	1.748351	c21.jpg	151
141.3	6	5_inacc	3	4.462387	c14.jpg	151
153.4	6	1_acc	2	3.941306	c10.jpg	151
165.4	6	5_acc	4	3.126339	c15.jpg	151
174.6	6	1_acc	4	2.472273	c17.jpg	151
182.7	6	1_acc	3	2.885701	c2.jpg	151
191.8	6	1_inacc	1	3.434955	c1.jpg	151
202.5	6	5_acc	3	4.122072	c22.jpg	151
214.2	6	1_acc	3	2.18625	c6.jpg	151
224.1	6	5_acc	3	1.546086	c12.jpg	151
234.3	6	5_acc	2	1.319963	c20.jpg	151
3.07	6	5_acc	3	2.341347	c1.jpg	153
14.08	6	5_acc	1	2.32701	c6.jpg	153
23.97	6	5_inacc	4	2.90235	c8.jpg	153
34.59	6	1_inacc	3	1.458848	c9.jpg	153
43.75	6	1_inacc	2	1.216633	c22.jpg	153
52.17	6	1_inacc	2	2.327365	c12.jpg	153
62.78	6	1_inacc	2	2.16478	c20.jpg	153
71.57	6	1_inacc	1	1.053464	c5.jpg	153
81.82	6	5_inacc	2	2.191555	c16.jpg	153
93.15	6	5_acc	3	5.421233	c18.jpg	153
103.4	6	5_inacc	2	1.194969	c21.jpg	153
112.2	6	1_inacc	2	0.8302665	c4.jpg	153
123.54	6	5_acc	1	0.8442345	c19.jpg	153
132.72	6	1_inacc	2	1.756149	c3.jpg	153
144.78	6	5_inacc	2	2.926641	c17.jpg	153
156.48	6	5_inacc	4	1.499475	c13.jpg	153
164.54	6	1_acc	4	3.391412	c15.jpg	153
174.06	6	1_acc	2	1.52904	c24.jpg	153
185.76	6	5_inacc	4	1.468443	c10.jpg	153
194.2	6	1_inacc	2	1.78262	c14.jpg	153
202.26	6	5_acc	4	3.097814	c11.jpg	153
214.32	6	1_acc	4	3.500396	c23.jpg	153
225.3	6	1_inacc	2	0.9903605	c7.jpg	153
235.2	6	5_acc	1	0.9337647	c2.jpg	153
3.08	6	5_acc	1	2.109031	c4.jpg	156
13.35	6	5_acc	4	2.957271	c12.jpg	156
25.42	6	5_acc	4	3.016105	c9.jpg	156
36.05	6	1_acc	3	4.173663	c2.jpg	156
47.41	6	1_acc	1	2.442863	c10.jpg	156
56.2	6	1_acc	1	4.934698	c18.jpg	156
66.1	6	5_acc	4	3.363269	c3.jpg	156
74.16	6	5_acc	3	1.603636	c15.jpg	156
82.96	6	5_acc	2	3.911837	c5.jpg	156
92.49	6	1_acc	2	4.675016	c21.jpg	156
102.01	6	1_acc	2	5.894821	c11.jpg	156
112.62	6	5_acc	1	2.177321	c7.jpg	156
123.59	6	1_inacc	1	3.817246	c6.jpg	156
132.74	6	5_acc	4	1.817425	c24.jpg	156
144.09	6	1_miss	NA	NA	c19.jpg	156
156.15	6	1_acc	3	3.446561	c13.jpg	156
167.85	6	5_acc	1	1.904265	c14.jpg	156
179.55	6	1_acc	1	3.622996	c8.jpg	156
189.81	6	1_acc	2	2.147592	c1.jpg	156
200.78	6	5_acc	1	3.333142	c23.jpg	156
210.66	6	1_acc	4	3.167775	c17.jpg	156
218.73	6	5_acc	1	1.646735	c20.jpg	156
227.88	6	5_acc	4	2.59356	c22.jpg	156
236.3	6	1_acc	4	2.142904	c16.jpg	156
3	6	5_acc	2	2.308437	c14.jpg	158
13.7	6	1_inacc	1	2.811246	c11.jpg	158
23.6	6	5_acc	2	2.458724	c23.jpg	158
34.9	6	5_acc	2	2.799332	c9.jpg	158
46.7	6	1_acc	1	2.047289	c10.jpg	158
56.9	6	1_inacc	2	3.277986	c1.jpg	158
69	6	1_inacc	4	4.407645	c19.jpg	158
77.8	6	5_inacc	3	5.822359	c7.jpg	158
89.9	6	1_inacc	3	4.251977	c18.jpg	158
100.9	6	1_acc	4	3.144077	c2.jpg	158
109.3	6	5_inacc	3	3.905736	c24.jpg	158
118.1	6	1_acc	4	1.77813	c17.jpg	158
127.3	6	5_acc	4	4.146765	c5.jpg	158
138.3	6	5_inacc	1	2.530187	c12.jpg	158
146.7	6	1_acc	2	2.487208	c13.jpg	158
158.4	6	5_acc	3	2.128804	c20.jpg	158
168.7	6	5_acc	1	2.557981	c22.jpg	158
178.2	6	5_inacc	2	2.090417	c4.jpg	158
187.4	6	5_acc	1	2.417797	c15.jpg	158
197.2	6	1_acc	3	1.980753	c21.jpg	158
208.6	6	1_acc	1	1.620064	c16.jpg	158
219.2	6	1_acc	4	3.835553	c6.jpg	158
227.3	6	5_acc	4	3.082628	c3.jpg	158
235.3	6	1_inacc	1	3.031836	c8.jpg	158
3.07	6	5_inacc	4	2.946296	c7.jpg	161
11.53	6	5_acc	4	3.431329	c4.jpg	161
21.79	6	5_inacc	1	2.42134	c14.jpg	161
31.69	6	1_acc	2	2.686288	c18.jpg	161
43.39	6	5_inacc	4	4.544441	c12.jpg	161
55.09	6	5_inacc	4	2.496355	c15.jpg	161
64.24	6	1_acc	1	2.782168	c16.jpg	161
74.85	6	5_acc	4	3.168402	c23.jpg	161
84.38	6	5_inacc	3	2.750306	c3.jpg	161
93.2	6	5_inacc	1	1.896465	c9.jpg	161
104.18	6	5_inacc	2	2.66971	c24.jpg	161
114.8	6	1_acc	2	2.618871	c6.jpg	161
123.94	6	5_inacc	1	2.369858	c20.jpg	161
132.01	6	1_acc	4	3.97648	c10.jpg	161
142.28	6	1_acc	2	4.12295	c1.jpg	161
153.25	6	1_acc	1	2.899699	c17.jpg	161
163.14	6	5_acc	2	2.182597	c22.jpg	161
175.2	6	5_inacc	2	2.957159	c5.jpg	161
186.54	6	1_inacc	4	3.018647	c19.jpg	161
195.34	6	1_acc	1	2.55035	c13.jpg	161
206.67	6	1_inacc	2	5.145747	c8.jpg	161
215.11	6	1_acc	3	4.568123	c11.jpg	161
227.17	6	1_acc	4	2.630763	c2.jpg	161
235.24	6	1_acc	3	2.906858	c21.jpg	161
3.09	6	5_acc	1	1.633174	c2.jpg	164
14.11	6	5_acc	2	1.781817	c10.jpg	164
22.57	6	1_acc	1	1.868865	c3.jpg	164
33.55	6	1_inacc	4	2.227859	c15.jpg	164
43.83	6	5_acc	4	1.84525	c21.jpg	164
54.43	6	1_acc	4	2.25057	c24.jpg	164
66.52	6	1_acc	1	2.064773	c9.jpg	164
76.41	6	5_inacc	3	3.225223	c16.jpg	164
84.5	6	1_inacc	3	2.822364	c4.jpg	164
93.33	6	1_acc	3	3.140125	c22.jpg	164
104.66	6	1_inacc	3	3.335789	c12.jpg	164
115.27	6	5_acc	1	2.30511	c6.jpg	164
125.53	6	5_acc	4	1.525674	c17.jpg	164
137.26	6	5_acc	3	2.54891	c1.jpg	164
147.15	6	5_inacc	2	3.1032	c13.jpg	164
158.49	6	1_inacc	2	2.709963	c23.jpg	164
166.92	6	1_inacc	3	2.910145	c20.jpg	164
176.45	6	1_acc	3	2.945175	c7.jpg	164
185.61	6	5_inacc	4	3.314087	c8.jpg	164
197.69	6	5_inacc	2	3.954607	c11.jpg	164
207.21	6	1_inacc	3	2.393886	c5.jpg	164
218.91	6	5_acc	1	5.123377	c19.jpg	164
228.07	6	1_acc	4	2.79515	c14.jpg	164
236.13	6	5_acc	3	2.897258	c18.jpg	164
3	6	5_inacc	3	2.951902	c18.jpg	167
13.7	6	5_inacc	3	2.587479	c17.jpg	167
24.7	6	5_inacc	1	3.436535	c11.jpg	167
35	6	1_acc	4	3.617298	c3.jpg	167
44.2	6	1_inacc	3	3.35417	c23.jpg	167
55.1	6	1_acc	3	1.928697	c20.jpg	167
63.6	6	5_inacc	1	2.52972	c16.jpg	167
74.9	6	1_acc	1	2.7428	c7.jpg	167
86.3	6	5_inacc	2	4.689152	c2.jpg	167
98.3	6	5_inacc	2	3.012548	c6.jpg	167
108.2	6	5_acc	2	2.12238	c8.jpg	167
117	6	1_inacc	2	3.15298	c12.jpg	167
125.1	6	1_acc	3	2.373102	c14.jpg	167
137.2	6	5_acc	2	2.862358	c19.jpg	167
148.9	6	1_inacc	3	2.747662	c24.jpg	167
158.4	6	5_inacc	2	2.71835	c10.jpg	167
167.6	6	1_inacc	3	3.848248	c15.jpg	167
176.4	6	1_inacc	3	1.989861	c9.jpg	167
187	6	5_inacc	2	1.509471	c1.jpg	167
195.5	6	5_acc	3	3.407773	c13.jpg	167
203.5	6	1_acc	2	3.320797	c4.jpg	167
213.8	6	1_inacc	3	2.937276	c5.jpg	167
223.7	6	5_inacc	2	2.283663	c21.jpg	167
233.2	6	1_inacc	2	1.803243	c22.jpg	167
3.07	6	1_acc	1	2.04492	c5.jpg	171
14.82	6	1_acc	2	2.161716	c23.jpg	171
26.21	6	5_acc	1	1.67909	c18.jpg	171
36.13	6	5_acc	3	2.34639	c16.jpg	171
44.94	6	5_acc	2	2.11224	c17.jpg	171
55.56	6	1_acc	1	2.804398	c24.jpg	171
65.8	6	5_acc	3	2.52267	c8.jpg	171
75.33	6	5_acc	1	1.627945	c13.jpg	171
85.58	6	5_acc	3	1.856345	c6.jpg	171
96.92	6	5_acc	1	3.556333	c21.jpg	171
105.37	6	5_inacc	3	3.266986	c19.jpg	171
116.37	6	1_acc	4	2.672004	c9.jpg	171
125.93	6	5_inacc	3	2.391099	c1.jpg	171
137.99	6	5_inacc	3	2.556431	c11.jpg	171
147.15	6	1_inacc	3	2.588342	c20.jpg	171
157.78	6	1_acc	4	2.202786	c12.jpg	171
169.84	6	1_inacc	2	1.817365	c14.jpg	171
180.83	6	1_inacc	3	2.005029	c15.jpg	171
189.64	6	5_acc	1	1.836876	c2.jpg	171
197.73	6	1_acc	2	2.247706	c3.jpg	171
206.88	6	5_acc	4	2.928654	c10.jpg	171
218.57	6	1_acc	3	2.565775	c7.jpg	171
226.64	6	1_inacc	2	1.690852	c22.jpg	171
236.53	6	1_inacc	2	1.815023	c4.jpg	171
3.07	6	1_acc	1	2.726794	c11.jpg	172
14.11	6	5_acc	1	2.055301	c5.jpg	172
25.82	6	1_inacc	3	1.867303	c19.jpg	172
37.19	6	1_acc	3	2.885124	c2.jpg	172
47.82	6	5_acc	2	2.350606	c7.jpg	172
58.08	6	1_acc	2	4.063933	c18.jpg	172
68.33	6	1_acc	1	5.706771	c21.jpg	172
80.41	6	5_acc	2	2.333217	c15.jpg	172
91.04	6	5_acc	2	1.855996	c23.jpg	172
100.56	6	1_inacc	4	2.113621	c10.jpg	172
112.26	6	1_acc	4	3.670322	c8.jpg	172
120.71	6	5_acc	2	2.756414	c3.jpg	172
128.77	6	5_acc	2	1.981707	c9.jpg	172
137.6	6	1_inacc	2	3.049297	c1.jpg	172
145.69	6	1_inacc	4	2.140243	c16.jpg	172
154.48	6	5_acc	3	1.4481	c24.jpg	172
165.85	6	1_acc	1	1.710828	c17.jpg	172
174.99	6	1_acc	3	2.241175	c13.jpg	172
184.51	6	5_acc	1	2.093871	c20.jpg	172
193.67	6	5_inacc	2	2.910299	c14.jpg	172
204.65	6	1_inacc	2	2.933106	c6.jpg	172
214.54	6	5_acc	1	3.93636	c4.jpg	172
222.96	6	5_acc	3	3.249388	c22.jpg	172
232.86	6	5_acc	3	1.36578	c12.jpg	172
3.05	6	5_acc	2	3.816673	c10.jpg	174
12.23	6	5_inacc	4	4.340117	c1.jpg	174
22.87	6	5_acc	4	3.626817	c2.jpg	174
34.2	6	1_acc	4	3.252044	c15.jpg	174
45.9	6	1_inacc	3	3.236404	c7.jpg	174
55.41	6	1_inacc	2	1.995492	c14.jpg	174
63.47	6	5_acc	1	3.633659	c21.jpg	174
75.17	6	1_inacc	2	4.35154	c22.jpg	174
85.07	6	5_acc	1	4.133888	c8.jpg	174
93.5	6	1_acc	2	3.145585	c5.jpg	174
104.83	6	1_acc	4	3.533287	c9.jpg	174
113.61	6	1_acc	4	3.192373	c12.jpg	174
124.23	6	1_inacc	4	3.55447	c20.jpg	174
136.31	6	5_acc	4	3.457094	c18.jpg	174
145.82	6	5_acc	1	2.225634	c6.jpg	174
153.89	6	1_acc	3	4.347828	c4.jpg	174
162.31	6	5_acc	4	3.926457	c19.jpg	174
171.09	6	1_acc	2	3.806258	c24.jpg	174
180.26	6	5_acc	1	1.48955	c17.jpg	174
190.15	6	5_inacc	4	4.01865	c13.jpg	174
201.13	6	1_acc	1	2.908405	c23.jpg	174
212.13	6	1_inacc	3	4.395655	c3.jpg	174
222.37	6	5_acc	3	3.677269	c16.jpg	174
232.61	6	5_acc	1	5.269187	c11.jpg	174
3.1	6	1_inacc	4	3.230045	c13.jpg	176
12.65	6	1_acc	2	2.136322	c18.jpg	176
21.11	6	1_inacc	1	2.474264	c17.jpg	176
31	6	5_acc	3	3.00078	c14.jpg	176
39.81	6	1_acc	1	2.209452	c10.jpg	176
50.8	6	5_inacc	3	2.762216	c9.jpg	176
58.88	6	1_inacc	1	3.329567	c11.jpg	176
69.14	6	5_inacc	1	2.377436	c15.jpg	176
80.55	6	5_acc	3	3.698524	c3.jpg	176
91.15	6	1_inacc	3	3.434499	c16.jpg	176
101.76	6	5_inacc	1	2.17393	c22.jpg	176
113.83	6	5_inacc	3	4.106349	c4.jpg	176
123.04	6	5_acc	4	3.11262	c24.jpg	176
134.78	6	1_inacc	4	2.39402	c21.jpg	176
142.84	6	1_inacc	2	3.179314	c19.jpg	176
152	6	1_inacc	3	2.358913	c2.jpg	176
164.08	6	5_inacc	3	2.335009	c20.jpg	176
173.6	6	1_inacc	1	2.730291	c6.jpg	176
184.94	6	5_inacc	3	4.232546	c12.jpg	176
195.91	6	5_inacc	4	2.726086	c5.jpg	176
206.18	6	5_inacc	1	1.997558	c23.jpg	176
216.05	6	1_inacc	3	2.623951	c8.jpg	176
227.75	6	5_acc	2	1.384315	c7.jpg	176
236.2	6	1_inacc	2	2.3057	c1.jpg	176
3.077	6	1_acc	4	2.791226	c17.jpg	178
14.478	6	5_acc	2	3.224484	c4.jpg	178
23.308	6	1_acc	2	3.497971	c2.jpg	178
31.747	6	5_acc	1	3.019421	c14.jpg	178
40.191	6	5_inacc	3	2.925238	c5.jpg	178
52.255	6	1_inacc	3	3.622947	c10.jpg	178
60.33	6	5_acc	1	3.525137	c24.jpg	178
70.951	6	1_inacc	3	2.717683	c8.jpg	178
80.126	6	1_acc	2	3.545698	c16.jpg	178
90.368	6	1_inacc	4	3.634287	c13.jpg	178
102.43	6	5_acc	4	3.576352	c12.jpg	178
113.431	6	1_inacc	3	2.578523	c1.jpg	178
124.411	6	5_inacc	3	3.171182	c23.jpg	178
133.953	6	1_inacc	3	2.948148	c19.jpg	178
143.485	6	5_inacc	1	1.877841	c20.jpg	178
153.724	6	5_inacc	2	2.624544	c7.jpg	178
161.811	6	5_inacc	2	3.546774	c3.jpg	178
173.515	6	1_acc	2	3.269935	c18.jpg	178
184.137	6	5_acc	4	3.200539	c22.jpg	178
194.022	6	5_acc	2	2.214209	c15.jpg	178
203.186	6	5_acc	3	2.513409	c9.jpg	178
214.516	6	1_inacc	3	3.195511	c11.jpg	178
226.222	6	1_inacc	2	3.566313	c6.jpg	178
235.009	6	1_acc	1	2.963721	c21.jpg	178
3.07	6	1_acc	1	2.48274	c15.jpg	181
11.93	6	5_acc	1	2.915629	c13.jpg	181
23.27	6	5_acc	3	3.197745	c16.jpg	181
31.7	6	1_inacc	2	3.852016	c14.jpg	181
40.87	6	5_inacc	2	2.639831	c1.jpg	181
52.57	6	1_acc	4	3.407055	c23.jpg	181
64.64	6	1_inacc	4	2.852161	c4.jpg	181
75.98	6	1_inacc	1	1.657357	c5.jpg	181
85.5	6	1_inacc	2	2.596715	c12.jpg	181
96.14	6	1_inacc	2	2.116368	c7.jpg	181
106.03	6	1_acc	3	2.802958	c3.jpg	181
114.09	6	1_inacc	4	1.772494	c9.jpg	181
125.82	6	1_inacc	2	1.516928	c20.jpg	181
136.79	6	1_inacc	4	2.651841	c22.jpg	181
145.23	6	5_inacc	4	2.709164	c11.jpg	181
154.02	6	5_inacc	2	2.064173	c19.jpg	181
163.9	6	5_inacc	4	2.522566	c18.jpg	181
174.15	6	5_acc	3	2.972566	c21.jpg	181
183.32	6	5_inacc	2	2.004177	c6.jpg	181
192.85	6	5_inacc	3	1.834257	c10.jpg	181
204.91	6	5_inacc	3	2.486308	c17.jpg	181
215.88	6	1_inacc	1	2.88849	c24.jpg	181
226.13	6	5_acc	3	1.853766	c2.jpg	181
236.74	6	5_acc	4	2.58895	c8.jpg	181
3.07	6	5_acc	2	2.991348	c7.jpg	183
11.16	6	5_acc	4	4.317184	c23.jpg	183
22.16	6	5_acc	3	4.791964	c12.jpg	183
33.5	6	1_acc	1	3.0103	c21.jpg	183
41.94	6	1_inacc	3	2.130793	c18.jpg	183
50.74	6	5_acc	2	3.877699	c4.jpg	183
59.89	6	5_inacc	2	1.916671	c22.jpg	183
69.42	6	1_inacc	4	2.903236	c8.jpg	183
80.39	6	5_inacc	2	3.942247	c15.jpg	183
88.82	6	5_acc	1	1.847492	c3.jpg	183
98.71	6	1_acc	4	2.009183	c6.jpg	183
110.42	6	1_inacc	1	2.725684	c2.jpg	183
119.57	6	5_inacc	3	3.650706	c9.jpg	183
131.28	6	1_acc	2	3.2591	c11.jpg	183
143.36	6	1_inacc	2	6.12E-04	c17.jpg	183
154.7	6	1_inacc	2	4.81E-04	c16.jpg	183
164.24	6	1_inacc	3	4.115364	c1.jpg	183
174.5	6	1_inacc	3	3.078027	c13.jpg	183
184.37	6	5_inacc	2	3.950484	c20.jpg	183
194.99	6	1_acc	3	3.436542	c10.jpg	183
203.06	6	1_acc	3	1.666504	c19.jpg	183
213.67	6	5_acc	2	3.49777	c14.jpg	183
223.91	6	5_acc	4	3.106241	c5.jpg	183
235.99	6	5_acc	3	4.149115	c24.jpg	183
3.06	6	1_acc	3	2.535289	c8.jpg	185
13.33	6	1_acc	2	2.099718	c21.jpg	185
24.31	6	5_acc	2	2.337327	c14.jpg	185
36.01	6	5_inacc	2	2.361707	c23.jpg	185
48.08	6	5_inacc	1	1.61015	c5.jpg	185
56.87	6	1_inacc	4	4.300248	c10.jpg	185
68.22	6	5_acc	2	3.656179	c24.jpg	185
76.28	6	1_acc	4	2.526463	c6.jpg	185
87.98	6	1_acc	3	2.460917	c13.jpg	185
96.05	6	1_acc	4	4.108198	c2.jpg	185
105.57	6	1_acc	1	1.956828	c19.jpg	185
116.18	6	1_inacc	2	3.893923	c11.jpg	185
124.62	6	5_acc	2	4.449957	c12.jpg	185
134.14	6	1_inacc	2	3.858144	c17.jpg	185
143.31	6	1_inacc	2	3.947249	c16.jpg	185
152.12	6	1_inacc	4	4.292611	c1.jpg	185
162.01	6	5_acc	3	2.981268	c20.jpg	185
171.16	6	5_acc	4	3.961627	c9.jpg	185
182.5	6	5_acc	1	3.260764	c3.jpg	185
193.11	6	5_inacc	3	2.842325	c15.jpg	185
201.54	6	5_acc	3	4.501741	c4.jpg	185
211.43	6	1_acc	1	3.405438	c18.jpg	185
223.49	6	5_inacc	1	3.308843	c7.jpg	185
234.47	6	5_acc	4	3.550472	c22.jpg	185
3.05	6	1_inacc	3	4.221806	c12.jpg	187
13.33	6	1_inacc	3	2.474219	c4.jpg	187
21.76	6	1_inacc	2	2.506047	c23.jpg	187
33.1	6	5_inacc	2	2.201683	c16.jpg	187
45.16	6	5_inacc	3	3.51286	c18.jpg	187
53.58	6	5_inacc	2	2.322821	c11.jpg	187
63.84	6	5_inacc	2	2.189146	c2.jpg	187
74.44	6	5_inacc	3	2.544709	c13.jpg	187
84.34	6	1_acc	2	2.461376	c3.jpg	187
94.23	6	1_acc	3	5.22103	c14.jpg	187
106.31	6	5_inacc	2	3.467093	c1.jpg	187
118.01	6	1_inacc	1	2.900856	c9.jpg	187
126.07	6	1_inacc	4	3.112076	c5.jpg	187
135.6	6	1_acc	3	3.744657	c15.jpg	187
147.29	6	1_acc	2	4.336707	c7.jpg	187
156.45	6	5_inacc	1	1.781757	c21.jpg	187
164.52	6	1_inacc	1	3.934801	c20.jpg	187
173.3	6	5_acc	1	3.871995	c17.jpg	187
182.46	6	5_inacc	1	3.029602	c19.jpg	187
193.8	6	5_inacc	2	2.558545	c6.jpg	187
203.34	6	5_acc	3	2.637281	c8.jpg	187
214.32	6	1_acc	2	2.289966	c22.jpg	187
225.3	6	5_inacc	1	4.161812	c10.jpg	187
234.09	6	1_inacc	2	4.526438	c24.jpg	187
3.05	6	5_inacc	1	5.014841	c9.jpg	190
14.05	6	5_acc	3	3.989866	c23.jpg	190
23.57	6	1_inacc	1	2.806961	c13.jpg	190
33.83	6	1_inacc	1	3.602957	c1.jpg	190
43.35	6	1_inacc	2	4.328968	c19.jpg	190
51.42	6	1_inacc	4	3.757073	c21.jpg	190
60.21	6	5_inacc	1	2.667401	c5.jpg	190
71.55	6	5_inacc	2	2.949828	c12.jpg	190
81.79	6	5_inacc	3	4.010274	c15.jpg	190
91.69	6	5_inacc	3	4.49275	c24.jpg	190
100.12	6	5_inacc	1	3.621773	c22.jpg	190
111.81	6	1_acc	2	2.611266	c6.jpg	190
123.89	6	5_acc	4	3.668421	c7.jpg	190
135.95	6	1_inacc	4	4.147431	c11.jpg	190
144.38	6	5_inacc	3	3.903302	c4.jpg	190
152.45	6	1_inacc	3	4.355725	c10.jpg	190
163.43	6	1_inacc	2	2.288061	c16.jpg	190
173.32	6	1_inacc	1	2.411809	c18.jpg	190
185.02	6	5_acc	3	3.602441	c20.jpg	190
194.19	6	1_inacc	3	3.36287	c2.jpg	190
205.53	6	1_acc	4	4.640858	c8.jpg	190
214.68	6	5_acc	4	3.546787	c14.jpg	190
225.28	6	1_inacc	4	3.750081	c17.jpg	190
235.9	6	5_acc	2	3.442164	c3.jpg	190
3.1	6	1_inacc	3	4.847924	c3.jpg	192
14.2	6	5_acc	4	3.868301	c10.jpg	192
22.6	6	5_acc	1	4.238607	c19.jpg	192
31.8	6	1_acc	4	4.045003	c23.jpg	192
40.2	6	5_acc	4	1.42322	c17.jpg	192
52	6	5_acc	2	2.540616	c2.jpg	192
61.5	6	1_acc	1	3.445213	c12.jpg	192
69.6	6	1_acc	3	4.187003	c20.jpg	192
79.1	6	1_acc	2	4.003622	c5.jpg	192
90.8	6	1_acc	1	4.030364	c22.jpg	192
100.7	6	5_acc	3	1.608436	c6.jpg	192
112.1	6	1_inacc	4	3.810252	c15.jpg	192
123.4	6	5_inacc	1	3.722935	c8.jpg	192
134.4	6	5_acc	1	3.985881	c11.jpg	192
144.6	6	5_acc	3	2.95758	c16.jpg	192
154.6	6	5_acc	2	2.361	c1.jpg	192
165.2	6	1_inacc	2	4.250974	c24.jpg	192
175.8	6	5_acc	3	3.050727	c13.jpg	192
183.8	6	1_inacc	3	3.434889	c4.jpg	192
194.1	6	5_acc	1	3.653448	c18.jpg	192
206.2	6	1_inacc	4	3.85197	c7.jpg	192
218.3	6	1_acc	1	5.048593	c9.jpg	192
227.4	6	5_acc	4	3.298554	c21.jpg	192
236.3	6	1_miss	NA	NA	c14.jpg	192
3.05	6	1_inacc	4	3.847716	c9.jpg	194
11.14	6	5_acc	3	1.612635	c19.jpg	194
22.84	6	5_acc	1	2.529402	c16.jpg	194
33.47	6	5_inacc	1	3.071897	c2.jpg	194
44.45	6	1_inacc	1	2.909901	c3.jpg	194
56.53	6	1_inacc	4	2.072331	c7.jpg	194
66.05	6	5_inacc	3	3.353693	c6.jpg	194
77.4	6	1_acc	1	2.469971	c23.jpg	194
88.38	6	5_acc	4	2.911591	c8.jpg	194
97.17	6	1_inacc	3	1.83343	c20.jpg	194
107.41	6	1_inacc	1	2.277247	c22.jpg	194
117.29	6	5_inacc	2	2.932634	c11.jpg	194
129.36	6	5_acc	3	1.284811	c17.jpg	194
139.61	6	1_acc	2	1.812461	c12.jpg	194
151.32	6	1_inacc	3	2.604674	c5.jpg	194
162.65	6	1_inacc	4	3.142354	c24.jpg	194
173.29	6	1_inacc	2	3.36156	c15.jpg	194
182.44	6	5_inacc	2	2.896336	c10.jpg	194
190.87	6	1_inacc	3	2.428856	c14.jpg	194
199.31	6	5_acc	3	2.700324	c1.jpg	194
209.2	6	5_inacc	2	2.600948	c18.jpg	194
217.28	6	5_acc	2	2.857738	c13.jpg	194
226.44	6	5_inacc	3	2.273859	c21.jpg	194
235.97	6	1_inacc	4	2.48957	c4.jpg	194
3.07	6	1_acc	2	3.008162	c22.jpg	195
12.25	6	1_inacc	2	2.556923	c14.jpg	195
23.25	6	5_acc	1	2.468331	c8.jpg	195
35.31	6	5_acc	1	3.975839	c18.jpg	195
43.39	6	5_acc	4	3.59305	c1.jpg	195
52.93	6	5_inacc	1	3.942716	c2.jpg	195
63.54	6	1_acc	4	4.055296	c24.jpg	195
71.97	6	5_acc	4	3.152421	c6.jpg	195
80.77	6	1_inacc	1	2.963652	c9.jpg	195
89.57	6	5_acc	1	4.624065	c17.jpg	195
101.28	6	1_acc	3	2.469513	c3.jpg	195
111.17	6	5_acc	3	1.531891	c16.jpg	195
122.15	6	5_inacc	4	3.544811	c19.jpg	195
133.48	6	1_miss	NA	NA	c20.jpg	195
141.55	6	1_acc	2	3.683246	c7.jpg	195
153.62	6	1_acc	1	3.529044	c5.jpg	195
163.15	6	5_acc	1	4.588072	c11.jpg	195
172.32	6	5_acc	4	4.676421	c21.jpg	195
182.21	6	1_acc	3	2.752634	c4.jpg	195
192.83	6	1_inacc	4	4.201952	c23.jpg	195
204.53	6	5_acc	1	4.575325	c10.jpg	195
214.77	6	1_acc	3	4.954828	c12.jpg	195
226.1	6	5_inacc	4	4.884588	c13.jpg	195
234.54	6	1_acc	2	5.209491	c15.jpg	195
3.08	6	1_inacc	1	2.306693	c1.jpg	196
11.17	6	5_acc	2	1.98845	c7.jpg	196
22.51	6	5_inacc	2	2.441917	c9.jpg	196
30.95	6	1_inacc	1	2.850888	c11.jpg	196
42.29	6	1_inacc	2	2.538807	c10.jpg	196
52.53	6	5_inacc	1	3.012087	c24.jpg	196
60.61	6	5_inacc	4	3.851559	c3.jpg	196
70.49	6	5_inacc	2	4.096394	c22.jpg	196
82.2	6	1_inacc	3	2.332414	c17.jpg	196
91.36	6	5_acc	4	2.992843	c20.jpg	196
100.15	6	1_inacc	1	3.686375	c19.jpg	196
109.68	6	1_acc	1	3.723445	c21.jpg	196
118.47	6	5_inacc	4	2.425746	c4.jpg	196
130.53	6	5_inacc	3	2.739167	c23.jpg	196
140.77	6	5_inacc	1	2.315391	c5.jpg	196
151.75	6	1_inacc	3	3.085977	c18.jpg	196
162.72	6	1_inacc	3	2.98939	c8.jpg	196
171.16	6	5_acc	1	1.641066	c12.jpg	196
180.33	6	1_inacc	2	2.691155	c13.jpg	196
190.95	6	5_inacc	2	3.000837	c14.jpg	196
201.56	6	1_inacc	3	4.264503	c2.jpg	196
211.46	6	1_acc	3	3.071401	c16.jpg	196
223.16	6	5_acc	4	2.348158	c15.jpg	196
232.68	6	1_inacc	1	3.140179	c6.jpg	196
3.06	6	1_inacc	1	1.887529	c9.jpg	201
12.59	6	5_inacc	2	5.620267	c21.jpg	201
21.76	6	1_inacc	2	5.686878	c4.jpg	201
32.38	6	5_acc	1	4.2754	c17.jpg	201
40.44	6	1_acc	2	3.788817	c24.jpg	201
52.14	6	5_miss	NA	NA	c6.jpg	201
60.57	6	1_inacc	4	2.687869	c12.jpg	201
72.65	6	5_inacc	1	3.146071	c1.jpg	201
82.17	6	1_inacc	1	4.003672	c23.jpg	201
93.5	6	1_inacc	3	4.531861	c7.jpg	201
101.92	6	5_acc	2	3.478845	c13.jpg	201
110.72	6	5_miss	NA	NA	c16.jpg	201
120.96	6	5_acc	2	3.189282	c11.jpg	201
132.66	6	1_inacc	2	4.648826	c20.jpg	201
142.91	6	5_miss	NA	NA	c2.jpg	201
153.88	6	1_inacc	4	3.938903	c22.jpg	201
162.67	6	1_acc	4	4.032139	c14.jpg	201
173.66	6	1_acc	4	5.273157	c3.jpg	201
183.54	6	1_acc	4	1.806233	c15.jpg	201
191.61	6	1_inacc	4	5.082215	c5.jpg	201
200.76	6	5_acc	1	4.141928	c19.jpg	201
211.39	6	5_acc	2	1.808434	c8.jpg	201
221.27	6	5_inacc	2	4.963559	c10.jpg	201
232.61	6	5_inacc	1	3.300419	c18.jpg	201
3.1	6	5_inacc	4	2.726755	c23.jpg	207
12.2	6	1_inacc	3	3.576059	c13.jpg	207
22.5	6	1_acc	2	3.35976	c2.jpg	207
31.7	6	1_inacc	1	3.364457	c19.jpg	207
42.7	6	5_acc	4	3.539579	c14.jpg	207
51.1	6	5_inacc	4	3.764673	c20.jpg	207
62.4	6	1_acc	3	2.76279	c8.jpg	207
70.9	6	5_inacc	1	3.015534	c5.jpg	207
81.5	6	1_acc	4	3.798263	c1.jpg	207
91.4	6	5_acc	2	3.692065	c12.jpg	207
101.6	6	1_acc	4	1.498499	c21.jpg	207
113.3	6	1_acc	1	3.375067	c18.jpg	207
121.4	6	5_inacc	3	3.573702	c3.jpg	207
130.9	6	1_inacc	4	3.512958	c10.jpg	207
142.3	6	5_inacc	2	3.079881	c9.jpg	207
150.4	6	5_acc	4	2.265385	c22.jpg	207
162.1	6	1_inacc	4	2.675858	c17.jpg	207
174.1	6	1_inacc	2	3.181396	c6.jpg	207
182.9	6	5_inacc	2	1.56046	c15.jpg	207
193.9	6	1_inacc	4	3.300927	c11.jpg	207
203.4	6	1_inacc	1	3.390519	c16.jpg	207
214	6	5_acc	3	3.182811	c7.jpg	207
223.9	6	5_inacc	1	3.532433	c4.jpg	207
232.7	6	5_acc	4	1.631545	c24.jpg	207
3.1	6	5_inacc	1	2.871265	c19.jpg	214
14.5	6	1_inacc	3	2.84495	c3.jpg	214
24.7	6	1_inacc	1	2.85653	c7.jpg	214
36.8	6	5_acc	4	3.683689	c6.jpg	214
46.7	6	1_inacc	2	2.998939	c12.jpg	214
54.7	6	5_inacc	3	2.62547	c1.jpg	214
62.8	6	1_inacc	2	1.3274	c5.jpg	214
71.3	6	5_inacc	1	2.992095	c11.jpg	214
79.7	6	5_acc	1	2.709633	c18.jpg	214
89.9	6	1_inacc	4	2.914734	c15.jpg	214
100.9	6	1_acc	1	2.094642	c9.jpg	214
110.1	6	5_inacc	2	3.64699	c21.jpg	214
122.1	6	1_inacc	4	2.625095	c22.jpg	214
133.8	6	5_inacc	1	2.832485	c13.jpg	214
143.4	6	5_inacc	3	3.583663	c16.jpg	214
154	6	5_acc	1	2.989404	c10.jpg	214
162.8	6	1_inacc	4	3.570281	c14.jpg	214
174.1	6	5_acc	2	3.334444	c17.jpg	214
185.8	6	1_inacc	2	2.009327	c4.jpg	214
195.4	6	5_inacc	1	3.173844	c2.jpg	214
206.3	6	1_inacc	2	2.980089	c23.jpg	214
215.1	6	1_acc	4	3.788114	c20.jpg	214
225	6	1_acc	2	1.809877	c24.jpg	214
235.6	6	5_inacc	1	2.636957	c8.jpg	214
3.1	6	1_inacc	3	2.3875	c14.jpg	216
12.6	6	5_inacc	3	2.417668	c19.jpg	216
22.9	6	1_inacc	2	2.549038	c23.jpg	216
33.5	6	5_inacc	2	3.128255	c11.jpg	216
42.6	6	5_inacc	2	6.38E-04	c16.jpg	216
51.4	6	1_acc	2	4.65E-04	c20.jpg	216
59.5	6	1_inacc	2	4.55E-04	c7.jpg	216
67.9	6	1_inacc	2	4.33E-04	c12.jpg	216
77.1	6	5_inacc	2	4.11E-04	c6.jpg	216
85.5	6	5_inacc	4	3.618934	c17.jpg	216
93.6	6	5_acc	2	3.21153	c10.jpg	216
105.7	6	5_inacc	1	5.100196	c2.jpg	216
115.5	6	1_acc	1	3.615594	c4.jpg	216
125.4	6	5_inacc	4	3.845704	c21.jpg	216
136.1	6	5_acc	1	4.518816	c13.jpg	216
145.6	6	1_acc	2	4.484782	c15.jpg	216
157.7	6	1_inacc	2	3.84E-04	c5.jpg	216
169.4	6	5_inacc	2	3.68E-04	c1.jpg	216
180.7	6	1_acc	2	3.66E-04	c3.jpg	216
191.7	6	1_inacc	2	3.93E-04	c9.jpg	216
203	6	5_inacc	2	4.21E-04	c18.jpg	216
214	6	5_acc	2	5.07E-04	c8.jpg	216
225.7	6	1_acc	4	3.046159	c24.jpg	216
234.5	6	1_inacc	3	4.486387	c22.jpg	216
3.1	6	1_acc	3	4.122914	c4.jpg	219
11.2	6	1_inacc	4	5.701266	c5.jpg	219
22.5	6	1_inacc	3	5.808676	c15.jpg	219
30.9	6	5_acc	4	2.890481	c16.jpg	219
40.8	6	5_acc	4	2.849834	c21.jpg	219
51.8	6	5_inacc	3	5.192671	c11.jpg	219
61	6	1_acc	1	4.004588	c23.jpg	219
72.7	6	1_acc	3	3.706109	c24.jpg	219
82.2	6	5_inacc	2	4.562436	c8.jpg	219
91	6	5_acc	3	3.214429	c19.jpg	219
101.2	6	1_acc	3	2.02299	c22.jpg	219
113.3	6	1_miss	NA	NA	c14.jpg	219
123.5	6	1_inacc	2	3.57161	c9.jpg	219
133.5	6	5_acc	4	2.759791	c1.jpg	219
144.1	6	1_acc	1	4.392562	c7.jpg	219
152.9	6	5_inacc	1	3.637845	c6.jpg	219
164.9	6	1_acc	4	2.976447	c3.jpg	219
174.1	6	1_inacc	4	4.996232	c20.jpg	219
184.7	6	5_inacc	4	3.682026	c18.jpg	219
193.1	6	5_acc	1	3.362333	c17.jpg	219
201.2	6	1_acc	1	4.844543	c12.jpg	219
212.2	6	5_acc	3	2.453272	c10.jpg	219
223.9	6	5_inacc	3	3.332184	c2.jpg	219
233.4	6	5_acc	3	3.789114	c13.jpg	219
3	6	5_acc	4	3.360873	c18.jpg	225
14.8	6	1_inacc	3	3.813357	c3.jpg	225
23.6	6	1_inacc	3	3.700647	c22.jpg	225
34.9	6	5_inacc	3	3.265654	c19.jpg	225
44.1	6	1_inacc	2	2.72046	c14.jpg	225
53.3	6	1_acc	3	3.219366	c15.jpg	225
61.3	6	5_acc	2	1.857164	c17.jpg	225
70.9	6	5_acc	4	3.333974	c8.jpg	225
82.2	6	5_acc	4	3.805383	c2.jpg	225
92.8	6	1_inacc	1	1.633075	c9.jpg	225
102.7	6	1_acc	4	3.542113	c12.jpg	225
114.8	6	1_acc	4	3.805238	c23.jpg	225
125.8	6	5_acc	1	4.922161	c1.jpg	225
137.9	6	5_inacc	4	4.603918	c10.jpg	225
148.1	6	1_inacc	1	2.490325	c4.jpg	225
158.7	6	1_acc	4	4.44714	c7.jpg	225
167.2	6	5_acc	4	4.474916	c13.jpg	225
177	6	1_acc	2	4.48616	c5.jpg	225
186.6	6	1_inacc	1	5.680313	c20.jpg	225
198.3	6	5_acc	4	3.82599	c16.jpg	225
206.4	6	1_inacc	4	4.671261	c24.jpg	225
216.6	6	5_inacc	3	5.146556	c6.jpg	225
225	6	5_acc	4	4.074074	c21.jpg	225
236	6	5_acc	1	1.888372	c11.jpg	225
3.1	6	5_acc	1	2.832049	p6.jpg	103
14.1	6	1_inacc	2	4.334336	p22.jpg	103
23.7	6	5_acc	4	3.974123	p3.jpg	103
35	6	1_acc	1	1.50709	p21.jpg	103
46.7	6	5_acc	1	1.894227	p11.jpg	103
57	6	5_acc	3	2.050427	p8.jpg	103
65.4	6	5_acc	1	3.13657	p4.jpg	103
77.5	6	1_inacc	4	4.212698	p5.jpg	103
87.8	6	1_inacc	2	5.276988	p24.jpg	103
95.9	6	1_inacc	4	3.373257	p15.jpg	103
104.3	6	5_inacc	1	5.756588	p7.jpg	103
113.1	6	1_acc	1	4.69473	p20.jpg	103
124.4	6	5_acc	4	5.064566	p14.jpg	103
132.5	6	5_inacc	4	5.019718	p2.jpg	103
143.1	6	1_acc	2	1.394488	p18.jpg	103
152.3	6	5_acc	1	3.222225	p9.jpg	103
164	6	5_inacc	4	4.584668	p23.jpg	103
173.6	6	5_acc	4	4.942497	p13.jpg	103
183.4	6	1_inacc	2	5.241153	p19.jpg	103
192.2	6	5_acc	3	3.818778	p10.jpg	103
201.4	6	1_inacc	2	4.835301	p1.jpg	103
211.3	6	1_inacc	2	4.314206	p17.jpg	103
223.3	6	1_inacc	4	3.583061	p16.jpg	103
234	6	1_acc	2	1.658469	p12.jpg	103
3.13	6	1_inacc	3	2.841338	p6.jpg	107
13.05	6	5_acc	3	2.58974	p21.jpg	107
24.77	6	5_inacc	3	4.141613	p24.jpg	107
35.78	6	5_acc	4	2.5611	p1.jpg	107
47.85	6	5_inacc	3	4.393047	p15.jpg	107
57.04	6	1_inacc	1	3.383244	p23.jpg	107
65.5	6	1_inacc	1	3.838704	p11.jpg	107
76.49	6	1_acc	2	2.563705	p4.jpg	107
85.31	6	1_inacc	4	3.895607	p14.jpg	107
95.92	6	1_inacc	4	3.416218	p8.jpg	107
106.21	6	1_acc	1	1.822239	p2.jpg	107
114.28	6	5_acc	4	3.061321	p18.jpg	107
122.34	6	5_inacc	2	4.025065	p22.jpg	107
130.78	6	5_inacc	2	3.266803	p19.jpg	107
141.41	6	1_acc	1	2.29038	p7.jpg	107
153.48	6	1_acc	2	3.395154	p10.jpg	107
165.19	6	1_inacc	4	2.441063	p3.jpg	107
174.37	6	5_inacc	1	3.225567	p12.jpg	107
184.62	6	5_inacc	4	3.447334	p16.jpg	107
193.42	6	5_inacc	2	4.200263	p17.jpg	107
202.95	6	5_inacc	2	3.602137	p20.jpg	107
212.84	6	1_acc	1	2.511866	p13.jpg	107
222.36	6	1_acc	4	4.073215	p9.jpg	107
233.71	6	5_inacc	4	3.977019	p5.jpg	107
3.16	6	1_inacc	4	2.522014	p17.jpg	110
12.73	6	1_inacc	2	3.873334	p20.jpg	110
21.19	6	5_inacc	1	3.727414	p23.jpg	110
31.83	6	5_acc	1	3.865669	p6.jpg	110
41.42	6	5_acc	1	1.742844	p11.jpg	110
50.21	6	5_inacc	3	4.109812	p13.jpg	110
60.51	6	5_acc	3	3.936477	p8.jpg	110
68.6	6	5_acc	2	2.887917	p9.jpg	110
79.6	6	1_inacc	2	3.69991	p15.jpg	110
89.89	6	5_acc	2	3.573147	p3.jpg	110
99.05	6	1_inacc	1	3.226727	p19.jpg	110
107.85	6	1_inacc	4	3.3485	p24.jpg	110
119.95	6	1_inacc	1	3.561097	p18.jpg	110
129.14	6	5_inacc	1	4.079349	p2.jpg	110
139.06	6	1_inacc	3	3.881631	p21.jpg	110
150.77	6	5_acc	1	2.690998	p7.jpg	110
162.84	6	5_inacc	3	3.37142	p10.jpg	110
174.18	6	5_acc	2	4.228294	p4.jpg	110
182.64	6	1_acc	2	2.128863	p5.jpg	110
193.98	6	1_acc	3	4.016863	p12.jpg	110
202.05	6	1_inacc	3	4.200126	p1.jpg	110
213.03	6	1_acc	4	4.529609	p16.jpg	110
223.65	6	1_inacc	4	3.507369	p22.jpg	110
233.54	6	5_inacc	2	4.478769	p14.jpg	110
3.108	6	1_acc	4	3.91693	p10.jpg	112
11.234	6	1_acc	2	1.71947	p11.jpg	112
23.313	6	1_acc	1	1.855329	p7.jpg	112
32.857	6	1_acc	4	1.681829	p8.jpg	112
44.606	6	5_acc	2	3.599302	p20.jpg	112
55.243	6	1_acc	2	3.678268	p23.jpg	112
65.128	6	5_acc	4	3.930987	p5.jpg	112
73.588	6	5_acc	3	2.612493	p24.jpg	112
84.96	6	1_acc	1	1.479501	p13.jpg	112
95.958	6	5_acc	2	1.872908	p1.jpg	112
104.777	6	5_acc	2	2.067171	p17.jpg	112
115.041	6	5_acc	4	2.032929	p12.jpg	112
124.569	6	5_inacc	4	5.002171	p15.jpg	112
136.667	6	1_acc	2	5.427994	p14.jpg	112
145.468	6	5_acc	4	2.337407	p18.jpg	112
153.564	6	1_acc	4	2.067833	p2.jpg	112
162.727	6	5_acc	2	4.872758	p21.jpg	112
171.906	6	5_acc	1	3.218995	p22.jpg	112
181.79	6	1_acc	2	2.440475	p9.jpg	112
192.425	6	1_inacc	1	4.086113	p6.jpg	112
203.775	6	5_acc	2	1.706946	p16.jpg	112
214.75	6	1_acc	4	3.486849	p4.jpg	112
225.01	6	5_acc	3	4.28297	p19.jpg	112
236.711	6	1_acc	2	1.080749	p3.jpg	112
3.08	6	1_acc	3	4.212768	p9.jpg	113
13.01	6	1_acc	1	2.330918	p11.jpg	113
22.54	6	1_acc	2	3.122401	p13.jpg	113
33.16	6	1_inacc	3	3.438303	p3.jpg	113
41.97	6	5_acc	4	2.869507	p21.jpg	113
53.68	6	1_acc	3	1.243043	p2.jpg	113
65.03	6	1_acc	1	3.168878	p4.jpg	113
74.19	6	5_acc	3	2.28319	p24.jpg	113
85.18	6	5_inacc	2	3.464097	p20.jpg	113
95.07	6	5_inacc	1	5.039186	p17.jpg	113
104.23	6	5_acc	1	1.764266	p5.jpg	113
114.48	6	5_inacc	2	3.807265	p22.jpg	113
124.01	6	1_inacc	4	3.515933	p10.jpg	113
132.09	6	5_inacc	1	4.712488	p18.jpg	113
142.71	6	1_inacc	1	3.059835	p8.jpg	113
152.98	6	5_acc	3	3.614377	p19.jpg	113
161.79	6	5_inacc	4	3.978738	p16.jpg	113
173.87	6	5_acc	3	4.614114	p1.jpg	113
181.93	6	5_acc	4	2.846273	p15.jpg	113
193.28	6	1_acc	4	3.566785	p14.jpg	113
204.26	6	1_inacc	4	4.438179	p23.jpg	113
215.97	6	1_inacc	1	3.726814	p6.jpg	113
224.4	6	5_acc	2	1.596883	p12.jpg	113
232.85	6	1_acc	4	1.216049	p7.jpg	113
3.088	6	1_inacc	2	3.002625	p13.jpg	116
14.461	6	5_inacc	2	3.63096	p21.jpg	116
26.549	6	5_acc	4	4.377136	p12.jpg	116
35.727	6	5_acc	1	3.766382	p19.jpg	116
47.441	6	1_inacc	2	2.283319	p7.jpg	116
55.522	6	5_acc	2	2.592782	p1.jpg	116
65.044	6	5_inacc	3	4.027249	p17.jpg	116
73.478	6	5_acc	3	3.034371	p20.jpg	116
84.83	6	5_inacc	2	1.928621	p18.jpg	116
95.093	6	1_acc	3	1.195717	p3.jpg	116
107.172	6	5_inacc	2	3.529964	p16.jpg	116
115.986	6	5_inacc	3	2.306914	p5.jpg	116
126.966	6	5_inacc	4	3.878868	p15.jpg	116
135.041	6	1_acc	1	3.43463	p10.jpg	116
143.844	6	1_acc	3	3.062873	p23.jpg	116
153.368	6	1_inacc	4	3.183537	p11.jpg	116
165.086	6	1_acc	4	4.379788	p8.jpg	116
174.982	6	1_acc	2	1.288781	p2.jpg	116
184.141	6	5_inacc	3	3.892542	p24.jpg	116
194.77	6	1_inacc	2	4.042896	p6.jpg	116
205.758	6	1_inacc	3	3.620191	p9.jpg	116
216.012	6	5_acc	1	3.217353	p22.jpg	116
225.896	6	1_inacc	3	5.24363	p14.jpg	116
234.335	6	1_inacc	3	3.602605	p4.jpg	116
3.07	6	5_acc	1	3.531696	p2.jpg	120
12.99	6	1_inacc	1	4.120109	p22.jpg	120
22.88	6	5_acc	4	2.762494	p13.jpg	120
33.51	6	5_acc	2	1.854751	p14.jpg	120
45.21	6	1_acc	3	2.992393	p1.jpg	120
56.19	6	1_acc	3	2.289007	p15.jpg	120
65.71	6	5_acc	3	3.134037	p8.jpg	120
74.53	6	5_acc	1	3.777756	p10.jpg	120
82.97	6	5_acc	3	2.873032	p23.jpg	120
92.15	6	1_inacc	4	5.486459	p24.jpg	120
103.49	6	5_acc	1	1.297583	p4.jpg	120
114.82	6	1_inacc	1	4.60709	p20.jpg	120
126.9	6	1_inacc	4	5.10444	p18.jpg	120
137.53	6	1_inacc	1	4.632903	p12.jpg	120
145.6	6	5_inacc	1	3.297295	p11.jpg	120
155.13	6	1_miss	NA	NA	p19.jpg	120
163.55	6	1_acc	4	5.438198	p21.jpg	120
175.26	6	1_acc	3	3.960151	p5.jpg	120
184.07	6	5_acc	2	2.011038	p9.jpg	120
195.05	6	5_acc	1	2.619583	p7.jpg	120
207.12	6	5_acc	3	4.567087	p6.jpg	120
215.2	6	5_acc	3	2.741908	p3.jpg	120
225.46	6	1_acc	2	4.080034	p16.jpg	120
235.72	6	1_inacc	1	4.081406	p17.jpg	120
3.1	6	5_acc	4	2.477798	p10.jpg	123
13.7	6	1_acc	3	4.448949	p24.jpg	123
22.5	6	5_inacc	1	3.740631	p6.jpg	123
34.6	6	1_inacc	2	3.635738	p17.jpg	123
46.7	6	1_acc	2	1.541929	p21.jpg	123
55.1	6	5_acc	3	3.123442	p4.jpg	123
66.1	6	1_acc	1	4.348682	p16.jpg	123
75.6	6	5_acc	1	3.20436	p23.jpg	123
86.9	6	1_acc	4	3.63684	p18.jpg	123
97.9	6	1_acc	4	3.810978	p5.jpg	123
107.8	6	5_acc	3	3.624612	p2.jpg	123
116.9	6	5_acc	2	3.427662	p7.jpg	123
125.4	6	5_inacc	3	3.550852	p13.jpg	123
134.2	6	5_inacc	3	2.776171	p14.jpg	123
143.7	6	5_inacc	2	1.957123	p3.jpg	123
151.8	6	1_acc	3	3.625573	p1.jpg	123
163.5	6	1_acc	3	1.742389	p12.jpg	123
174.1	6	1_inacc	3	3.813818	p20.jpg	123
185.4	6	1_acc	1	4.707103	p15.jpg	123
193.5	6	5_acc	1	3.22223	p11.jpg	123
205.2	6	5_acc	2	1.446015	p8.jpg	123
215.1	6	1_acc	3	1.637627	p19.jpg	123
225.3	6	1_acc	2	3.623302	p22.jpg	123
234.5	6	5_acc	1	3.69918	p9.jpg	123
3.1	6	5_acc	3	1.619463	p22.jpg	124
14.4	6	5_acc	2	2.929116	p18.jpg	124
23.6	6	1_acc	1	3.365983	p13.jpg	124
35.7	6	1_inacc	3	3.340829	p8.jpg	124
46.7	6	5_acc	3	3.808015	p20.jpg	124
56.2	6	1_inacc	4	2.416988	p7.jpg	124
64.6	6	5_acc	1	2.287729	p12.jpg	124
73.4	6	1_acc	3	1.208526	p10.jpg	124
83.3	6	1_inacc	4	3.178525	p9.jpg	124
92.5	6	1_inacc	3	3.030386	p6.jpg	124
101.3	6	5_acc	4	1.450388	p5.jpg	124
111.9	6	1_inacc	3	3.758461	p11.jpg	124
122.1	6	5_inacc	2	3.420271	p16.jpg	124
132.4	6	5_inacc	4	1.718175	p15.jpg	124
143.3	6	5_acc	1	3.397992	p17.jpg	124
155.4	6	1_acc	3	2.249217	p23.jpg	124
167.1	6	5_acc	2	3.293676	p24.jpg	124
175.5	6	5_acc	2	1.724938	p19.jpg	124
183.6	6	1_acc	1	1.950483	p3.jpg	124
195	6	1_inacc	2	2.035512	p14.jpg	124
204.5	6	1_acc	1	2.669458	p4.jpg	124
212.5	6	5_acc	4	1.85813	p21.jpg	124
222.4	6	1_inacc	4	1.777984	p2.jpg	124
233	6	5_acc	4	1.107434	p1.jpg	124
3.1	6	5_inacc	3	2.546301	p17.jpg	126
14.8	6	1_inacc	4	3.010338	p7.jpg	126
23.3	6	5_acc	1	2.566215	p24.jpg	126
32.8	6	5_acc	4	3.4016	p15.jpg	126
44.9	6	1_acc	1	3.296281	p2.jpg	126
55.9	6	1_inacc	2	2.716972	p6.jpg	126
65.4	6	1_inacc	3	3.884607	p11.jpg	126
73.5	6	5_inacc	2	2.182641	p5.jpg	126
84.1	6	1_inacc	2	3.728475	p3.jpg	126
96.2	6	5_acc	1	3.35393	p19.jpg	126
104.2	6	5_inacc	4	2.796466	p12.jpg	126
114.1	6	1_acc	1	4.88686	p9.jpg	126
122.9	6	5_inacc	2	3.462966	p22.jpg	126
132.1	6	5_acc	1	3.397132	p16.jpg	126
142.3	6	5_inacc	3	3.916058	p1.jpg	126
153.7	6	1_inacc	3	4.492282	p14.jpg	126
164.3	6	5_acc	3	3.578911	p18.jpg	126
172.7	6	1_inacc	2	3.790553	p8.jpg	126
184.4	6	5_inacc	3	2.765675	p21.jpg	126
195.4	6	1_inacc	2	3.2054	p4.jpg	126
206.8	6	1_inacc	2	3.595817	p13.jpg	126
215.9	6	1_acc	1	2.659753	p10.jpg	126
225.8	6	5_acc	1	3.029539	p20.jpg	126
234.6	6	1_acc	1	3.938996	p23.jpg	126
3.1	6	1_acc	2	1.908066	p17.jpg	128
13.3	6	1_acc	3	2.498829	p5.jpg	128
24.3	6	5_inacc	1	3.762748	p6.jpg	128
34.9	6	1_acc	2	3.4468	p19.jpg	128
46.3	6	5_inacc	4	3.908361	p3.jpg	128
55.5	6	1_acc	3	3.025464	p22.jpg	128
63.9	6	1_acc	1	3.991408	p15.jpg	128
72	6	1_acc	4	2.754081	p18.jpg	128
84	6	1_acc	4	2.511383	p20.jpg	128
93.9	6	5_acc	3	5.969895	p10.jpg	128
103.5	6	5_acc	4	1.154344	p14.jpg	128
114.8	6	5_inacc	1	3.480305	p23.jpg	128
126.5	6	5_acc	1	2.108337	p9.jpg	128
137.5	6	5_inacc	1	4.941953	p13.jpg	128
146.3	6	5_acc	4	3.133887	p4.jpg	128
154.4	6	1_inacc	1	3.678075	p24.jpg	128
166.1	6	1_acc	2	5.605538	p21.jpg	128
176.7	6	5_acc	1	3.001429	p11.jpg	128
186.6	6	5_acc	4	3.126785	p2.jpg	128
196.8	6	5_acc	2	3.707637	p8.jpg	128
205.3	6	1_inacc	2	2.284985	p1.jpg	128
214.8	6	1_acc	4	2.609244	p12.jpg	128
223.9	6	1_acc	2	5.452081	p16.jpg	128
232.7	6	5_inacc	1	4.729934	p7.jpg	128
3.11	6	1_inacc	4	3.1578	p12.jpg	131
12.326	6	1_acc	3	3.762697	p5.jpg	131
21.895	6	5_acc	2	5.009721	p3.jpg	131
30.36	6	5_inacc	1	4.318583	p13.jpg	131
40.271	6	1_acc	1	3.383375	p19.jpg	131
48.729	6	1_acc	3	3.327142	p24.jpg	131
60.8	6	1_acc	4	4.230955	p15.jpg	131
72.531	6	5_inacc	4	4.703767	p10.jpg	131
82.785	6	1_inacc	3	5.633335	p18.jpg	131
91.584	6	1_inacc	1	3.17204	p22.jpg	131
102.247	6	5_inacc	1	3.472851	p9.jpg	131
113.974	6	5_inacc	1	2.301065	p7.jpg	131
124.597	6	5_acc	3	2.336367	p14.jpg	131
135.937	6	5_acc	1	5.17062	p11.jpg	131
144.759	6	5_inacc	3	2.956068	p23.jpg	131
155.764	6	1_inacc	4	4.716426	p20.jpg	131
166.012	6	5_acc	3	1.848386	p8.jpg	131
178.094	6	5_inacc	1	3.906196	p4.jpg	131
187.272	6	5_acc	4	2.758249	p6.jpg	131
195.354	6	1_inacc	3	4.618849	p16.jpg	131
205.255	6	1_acc	3	2.519938	p21.jpg	131
213.322	6	1_inacc	2	5.120455	p17.jpg	131
224.664	6	5_acc	4	2.842759	p2.jpg	131
234.188	6	1_acc	3	2.92804	p1.jpg	131
3.085	6	5_acc	3	3.193793	p17.jpg	136
14.099	6	5_acc	3	1.74296	p1.jpg	136
23.633	6	5_acc	3	2.036687	p5.jpg	136
32.434	6	5_acc	4	2.822164	p16.jpg	136
43.068	6	1_inacc	1	3.787234	p9.jpg	136
51.14	6	5_inacc	2	3.262939	p20.jpg	136
63.221	6	1_inacc	4	3.615622	p11.jpg	136
75.299	6	5_acc	4	2.250503	p12.jpg	136
83.38	6	5_acc	3	1.665975	p19.jpg	136
95.084	6	5_acc	3	1.862808	p21.jpg	136
103.558	6	1_acc	4	2.752144	p14.jpg	136
112.734	6	1_acc	1	3.121914	p3.jpg	136
124.449	6	1_inacc	1	3.675183	p6.jpg	136
135.801	6	1_acc	2	1.566253	p4.jpg	136
146.066	6	1_acc	2	2.734981	p7.jpg	136
155.647	6	5_acc	4	3.436971	p22.jpg	136
167.04	6	1_acc	2	2.207192	p10.jpg	136
176.921	6	1_inacc	2	3.321118	p2.jpg	136
185.361	6	1_acc	4	2.879693	p13.jpg	136
194.155	6	1_inacc	4	3.341607	p23.jpg	136
204.764	6	5_acc	2	1.878382	p15.jpg	136
215.016	6	5_acc	3	2.755547	p18.jpg	136
224.905	6	5_inacc	4	3.064909	p24.jpg	136
234.061	6	1_acc	2	2.361736	p8.jpg	136
3.09	6	1_inacc	3	3.638914	p5.jpg	142
12.65	6	1_inacc	4	2.983839	p12.jpg	142
24.02	6	5_acc	3	3.857641	p9.jpg	142
34.66	6	5_acc	1	2.415509	p7.jpg	142
44.94	6	1_inacc	3	4.177862	p19.jpg	142
54.12	6	1_inacc	2	5.508634	p24.jpg	142
64.03	6	1_inacc	4	5.224215	p16.jpg	142
72.83	6	1_inacc	2	4.096669	p17.jpg	142
83.83	6	5_acc	2	2.848991	p3.jpg	142
95.56	6	5_inacc	1	1.453833	p13.jpg	142
104.76	6	5_inacc	2	5.262077	p14.jpg	142
113.56	6	1_acc	2	3.037353	p18.jpg	142
123.81	6	1_inacc	4	2.583217	p20.jpg	142
131.9	6	5_acc	4	5.963918	p8.jpg	142
140.33	6	1_miss	NA	NA	p22.jpg	142
150.95	6	5_inacc	1	4.011816	p11.jpg	142
160.47	6	5_acc	2	1.89952	p2.jpg	142
172.54	6	5_acc	3	3.678124	p4.jpg	142
182.42	6	5_inacc	1	1.500494	p10.jpg	142
190.52	6	5_inacc	2	3.758002	p6.jpg	142
201.86	6	1_inacc	2	5.25531	p15.jpg	142
213.56	6	1_acc	1	1.823905	p21.jpg	142
222	6	5_acc	3	3.253864	p23.jpg	142
232.98	6	1_inacc	4	2.389565	p1.jpg	142
3.1	6	1_miss	NA	NA	p11.jpg	144
13.7	6	1_inacc	4	3.260934	p9.jpg	144
22.5	6	5_acc	1	2.667992	p12.jpg	144
31.7	6	1_inacc	1	3.15786	p10.jpg	144
41.3	6	5_acc	2	2.88395	p17.jpg	144
53	6	5_inacc	4	2.615974	p16.jpg	144
62.5	6	5_acc	3	3.36882	p19.jpg	144
73.2	6	1_inacc	4	3.159971	p13.jpg	144
84.5	6	5_acc	4	4.002615	p21.jpg	144
96.6	6	5_acc	1	3.220605	p5.jpg	144
104.7	6	5_inacc	3	3.95699	p24.jpg	144
113.5	6	1_inacc	4	5.25295	p3.jpg	144
125.2	6	5_miss	NA	NA	p20.jpg	144
136.2	6	1_inacc	1	2.368474	p7.jpg	144
148.2	6	1_inacc	4	5.55581	p23.jpg	144
156.7	6	1_acc	3	4.712801	p14.jpg	144
167.6	6	5_inacc	2	3.454091	p15.jpg	144
176.1	6	1_inacc	4	2.985265	p2.jpg	144
185.2	6	5_inacc	4	3.492286	p1.jpg	144
195.5	6	1_inacc	3	3.655523	p8.jpg	144
203.6	6	1_acc	2	4.226653	p6.jpg	144
213.5	6	5_inacc	2	3.074714	p18.jpg	144
224.8	6	1_acc	1	4.267235	p4.jpg	144
235.1	6	5_inacc	3	3.221344	p22.jpg	144
3.091	6	1_acc	3	3.406905	p13.jpg	149
13.769	6	1_inacc	1	2.623215	p4.jpg	149
25.856	6	5_acc	2	2.092003	p12.jpg	149
34.319	6	5_inacc	1	2.822578	p1.jpg	149
44.572	6	1_acc	1	2.197359	p10.jpg	149
53.747	6	1_acc	2	2.060035	p2.jpg	149
61.836	6	5_acc	2	2.433547	p22.jpg	149
72.831	6	5_acc	1	3.482228	p17.jpg	149
81.644	6	1_acc	3	2.360915	p11.jpg	149
91.193	6	1_inacc	3	3.607278	p14.jpg	149
102.188	6	5_acc	2	2.970581	p20.jpg	149
113.91	6	5_acc	2	2.208273	p16.jpg	149
125.974	6	1_acc	2	2.16569	p6.jpg	149
137.677	6	1_inacc	2	2.73043	p8.jpg	149
146.107	6	1_acc	1	2.344946	p3.jpg	149
156.357	6	1_inacc	4	3.033248	p7.jpg	149
166.251	6	5_inacc	1	3.248963	p24.jpg	149
176.139	6	5_acc	1	2.441691	p18.jpg	149
186.775	6	5_acc	4	1.742142	p5.jpg	149
196.292	6	5_acc	2	2.494198	p21.jpg	149
204.352	6	5_inacc	1	2.723845	p15.jpg	149
213.511	6	1_inacc	3	3.290762	p23.jpg	149
222.303	6	1_inacc	4	3.532295	p9.jpg	149
233.648	6	5_acc	1	3.019751	p19.jpg	149
3.07	6	5_inacc	2	3.193623	p13.jpg	152
12.62	6	5_inacc	4	3.957123	p6.jpg	152
23.99	6	1_inacc	2	2.494096	p16.jpg	152
34.31	6	1_acc	3	4.335885	p22.jpg	152
46.01	6	1_inacc	3	3.967123	p18.jpg	152
55.92	6	5_acc	3	4.040548	p7.jpg	152
66.17	6	1_inacc	2	2.338108	p15.jpg	152
77.52	6	1_inacc	4	2.25555	p1.jpg	152
85.97	6	1_inacc	1	2.623488	p12.jpg	152
94.04	6	5_acc	2	3.197131	p11.jpg	152
103.23	6	5_inacc	1	4.501435	p10.jpg	152
112.03	6	1_inacc	2	4.645134	p19.jpg	152
121.2	6	5_acc	4	2.544712	p2.jpg	152
131.09	6	5_inacc	1	3.028058	p8.jpg	152
142.82	6	1_inacc	2	2.989159	p24.jpg	152
151.63	6	1_inacc	4	2.977987	p21.jpg	152
163.7	6	5_inacc	1	2.471487	p23.jpg	152
174.68	6	5_inacc	4	3.658366	p14.jpg	152
183.11	6	1_inacc	2	3.542265	p5.jpg	152
194.1	6	5_inacc	3	4.405497	p9.jpg	152
202.17	6	1_acc	4	4.348107	p17.jpg	152
212.78	6	1_acc	3	3.324291	p20.jpg	152
222.33	6	5_inacc	1	3.694729	p4.jpg	152
232.94	6	5_inacc	4	3.701685	p3.jpg	152
3.07	6	1_inacc	4	2.328655	p6.jpg	154
11.89	6	1_inacc	3	1.24779	p23.jpg	154
23.59	6	5_inacc	1	1.692572	p19.jpg	154
34.94	6	5_inacc	4	0.7429125	p16.jpg	154
44.83	6	1_inacc	2	0.5638949	p4.jpg	154
52.89	6	1_inacc	2	0.3240216	p7.jpg	154
62.41	6	1_inacc	4	0.6496282	p10.jpg	154
74.47	6	5_inacc	2	1.252923	p12.jpg	154
84.01	6	5_inacc	4	2.355908	p1.jpg	154
94.25	6	1_acc	1	1.183429	p2.jpg	154
105.22	6	1_inacc	4	1.197968	p9.jpg	154
115.48	6	1_inacc	3	2.168945	p11.jpg	154
126.09	6	5_inacc	1	3.314877	p18.jpg	154
135.25	6	5_inacc	3	1.938468	p20.jpg	154
147.32	6	1_inacc	3	0.6903816	p14.jpg	154
155.75	6	5_inacc	2	0.8061136	p17.jpg	154
164.18	6	5_inacc	2	1.399844	p21.jpg	154
172.24	6	1_inacc	2	1.275987	p3.jpg	154
182.14	6	1_inacc	1	2.36615	p13.jpg	154
193.49	6	5_inacc	3	1.552534	p24.jpg	154
202.28	6	5_inacc	4	3.064453	p15.jpg	154
213.26	6	5_inacc	1	3.701735	p22.jpg	154
223.88	6	1_inacc	3	3.452949	p8.jpg	154
233.05	6	5_inacc	2	1.325359	p5.jpg	154
3.07	6	5_acc	1	2.622504	p3.jpg	157
12.61	6	1_acc	3	4.341892	p20.jpg	157
23.97	6	1_acc	2	1.701967	p12.jpg	157
34.58	6	1_acc	3	3.051333	p16.jpg	157
44.84	6	1_inacc	4	1.804959	p18.jpg	157
53.27	6	5_inacc	2	2.062094	p13.jpg	157
63.89	6	1_inacc	3	3.233908	p1.jpg	157
74.88	6	5_acc	3	2.184181	p8.jpg	157
86.6	6	1_inacc	3	3.418337	p24.jpg	157
94.68	6	5_inacc	2	2.751329	p6.jpg	157
103.48	6	5_acc	4	2.072572	p2.jpg	157
114.45	6	1_acc	1	2.6873	p21.jpg	157
123.61	6	1_inacc	2	2.299513	p15.jpg	157
135.31	6	5_miss	NA	NA	p14.jpg	157
145.56	6	1_acc	1	1.807743	p22.jpg	157
155.44	6	5_inacc	4	4.336499	p10.jpg	157
163.87	6	5_acc	4	2.124793	p23.jpg	157
173.76	6	1_inacc	4	3.430486	p5.jpg	157
182.55	6	5_acc	3	3.82326	p7.jpg	157
190.62	6	5_acc	1	2.109219	p9.jpg	157
201.97	6	5_acc	2	4.145043	p11.jpg	157
211.13	6	5_acc	2	1.16031	p4.jpg	157
223.2	6	1_acc	1	4.623607	p17.jpg	157
232.72	6	1_inacc	2	4.226472	p19.jpg	157
3.1	6	1_inacc	3	2.802683	p4.jpg	162
12.6	6	1_acc	4	1.643118	p7.jpg	162
21.8	6	5_acc	4	2.741055	p17.jpg	162
33.9	6	1_inacc	3	2.597939	p14.jpg	162
46	6	1_inacc	3	3.328133	p9.jpg	162
56.9	6	5_inacc	3	3.818298	p22.jpg	162
65.4	6	1_acc	3	1.41649	p2.jpg	162
74.2	6	5_acc	2	2.323623	p19.jpg	162
85.2	6	1_inacc	1	3.493009	p23.jpg	162
95.8	6	5_acc	4	0.9684948	p5.jpg	162
104.9	6	5_inacc	2	3.65573	p18.jpg	162
115.2	6	1_inacc	3	2.969002	p8.jpg	162
125.5	6	1_inacc	4	3.04093	p10.jpg	162
135.4	6	1_acc	3	2.335536	p3.jpg	162
146.7	6	5_acc	2	2.37704	p21.jpg	162
158.4	6	5_acc	3	1.688627	p16.jpg	162
168.3	6	5_acc	2	4.230675	p24.jpg	162
176.4	6	5_acc	3	2.887117	p20.jpg	162
187	6	1_acc	3	3.764782	p6.jpg	162
198.7	6	1_inacc	3	2.930861	p13.jpg	162
207.2	6	5_acc	2	1.128872	p1.jpg	162
216.7	6	5_acc	4	1.112509	p12.jpg	162
225.5	6	5_acc	3	3.343436	p15.jpg	162
236.8	6	1_acc	2	3.462481	p11.jpg	162
3.09	6	1_acc	1	3.65222	p17.jpg	163
12.66	6	1_acc	1	2.289677	p12.jpg	163
23.66	6	1_inacc	1	4.601002	p19.jpg	163
33.57	6	5_acc	2	3.95673	p6.jpg	163
44.55	6	5_acc	3	2.028165	p8.jpg	163
54.1	6	1_acc	1	2.7529	p5.jpg	163
64.73	6	5_acc	3	2.263012	p10.jpg	163
76.12	6	1_acc	3	1.917484	p16.jpg	163
87.49	6	1_inacc	2	3.042819	p15.jpg	163
95.56	6	5_acc	1	4.000729	p14.jpg	163
105.46	6	5_acc	3	2.017328	p23.jpg	163
114.62	6	5_acc	1	1.563599	p4.jpg	163
123.43	6	5_acc	1	1.361093	p13.jpg	163
133.68	6	1_inacc	2	3.660127	p1.jpg	163
142.47	6	1_acc	3	1.32941	p21.jpg	163
154.53	6	5_acc	3	1.417095	p2.jpg	163
162.6	6	5_acc	2	1.7676	p11.jpg	163
173.25	6	5_acc	1	2.662229	p3.jpg	163
185.02	6	1_acc	3	4.105059	p22.jpg	163
195.27	6	1_acc	4	3.346778	p20.jpg	163
203.7	6	5_acc	4	3.364321	p9.jpg	163
215.77	6	1_inacc	1	2.927007	p24.jpg	163
224.93	6	5_acc	4	1.529191	p7.jpg	163
233.36	6	1_inacc	3	3.885395	p18.jpg	163
3.1	6	1_acc	1	1.826169	p11.jpg	165
11.6	6	5_acc	4	4.318265	p5.jpg	165
21.5	6	5_inacc	3	3.303041	p18.jpg	165
31.8	6	5_acc	1	3.195797	p24.jpg	165
43.5	6	5_inacc	4	2.86255	p12.jpg	165
52.7	6	5_acc	4	3.234061	p22.jpg	165
60.8	6	1_acc	2	2.453092	p7.jpg	165
71	6	5_acc	1	3.097063	p21.jpg	165
81.7	6	1_acc	1	3.00129	p8.jpg	165
92.7	6	5_acc	1	2.042494	p15.jpg	165
103.6	6	1_acc	2	1.566661	p10.jpg	165
115	6	5_inacc	4	3.352815	p20.jpg	165
126.3	6	1_inacc	1	4.339741	p23.jpg	165
134.4	6	5_inacc	1	2.418662	p16.jpg	165
146.5	6	1_acc	3	3.814133	p9.jpg	165
158.2	6	1_acc	1	1.644087	p2.jpg	165
167	6	1_acc	4	2.848752	p14.jpg	165
177.6	6	1_inacc	3	2.870542	p6.jpg	165
187.5	6	5_acc	2	2.080856	p19.jpg	165
196	6	1_acc	2	2.425558	p4.jpg	165
208.1	6	1_inacc	1	3.389303	p13.jpg	165
217.2	6	1_inacc	2	3.349242	p3.jpg	165
226.7	6	5_acc	4	2.248033	p1.jpg	165
236.3	6	5_acc	2	3.389715	p17.jpg	165
3.1	6	1_acc	1	1.808555	p13.jpg	166
11.6	6	5_acc	1	4.759333	p17.jpg	166
23.3	6	1_inacc	4	3.754642	p23.jpg	166
32.5	6	5_inacc	2	3.503532	p18.jpg	166
44.6	6	5_acc	1	3.728603	p1.jpg	166
55.5	6	1_acc	2	3.114232	p6.jpg	166
67.3	6	5_acc	4	1.567556	p16.jpg	166
77.5	6	5_acc	1	2.501261	p15.jpg	166
86	6	5_acc	2	3.902384	p24.jpg	166
94.1	6	5_inacc	4	3.20067	p22.jpg	166
103.3	6	1_acc	2	3.013244	p2.jpg	166
113.9	6	1_inacc	1	2.795801	p4.jpg	166
125.2	6	1_acc	4	1.941357	p14.jpg	166
134.1	6	5_inacc	3	3.591267	p5.jpg	166
145.4	6	1_acc	4	5.368785	p8.jpg	166
155.3	6	1_acc	4	1.590982	p3.jpg	166
165.6	6	5_inacc	2	4.626886	p21.jpg	166
176.2	6	1_inacc	3	4.266385	p10.jpg	166
188.3	6	1_miss	NA	NA	p11.jpg	166
196.4	6	5_acc	3	3.411572	p20.jpg	166
205.2	6	5_acc	2	2.390594	p19.jpg	166
215.1	6	5_inacc	1	5.001974	p12.jpg	166
224.6	6	1_acc	4	2.368876	p9.jpg	166
235.6	6	1_acc	3	3.820743	p7.jpg	166
3.1	6	1_miss	NA	NA	p2.jpg	173
13.7	6	1_acc	3	2.982184	p6.jpg	173
22.2	6	1_acc	2	2.791588	p23.jpg	173
31.7	6	5_inacc	4	2.146855	p20.jpg	173
42	6	5_inacc	3	3.942304	p12.jpg	173
51.9	6	1_inacc	2	4.449558	p9.jpg	173
63.2	6	1_inacc	3	2.268681	p3.jpg	173
72.4	6	1_acc	1	2.390563	p7.jpg	173
83.4	6	5_acc	3	3.219292	p1.jpg	173
94	6	1_acc	4	2.721674	p4.jpg	173
103.9	6	5_acc	2	1.824994	p5.jpg	173
111.9	6	5_inacc	3	3.106639	p22.jpg	173
121.5	6	1_acc	4	3.776626	p14.jpg	173
133.5	6	5_acc	3	3.352108	p16.jpg	173
142	6	5_acc	1	2.350762	p17.jpg	173
153.3	6	1_inacc	1	1.969596	p13.jpg	173
162.1	6	5_acc	4	2.329732	p19.jpg	173
174.2	6	5_acc	2	3.282567	p18.jpg	173
185.9	6	5_inacc	3	3.112332	p24.jpg	173
195.1	6	1_inacc	1	3.304344	p10.jpg	173
203.1	6	5_acc	2	1.323751	p15.jpg	173
211.9	6	5_acc	4	1.373837	p21.jpg	173
222.9	6	1_acc	1	2.055821	p11.jpg	173
234.6	6	1_inacc	3	2.512772	p8.jpg	173
3.08	6	5_miss	NA	NA	p23.jpg	175
15.18	6	1_inacc	2	2.176566	p18.jpg	175
27.25	6	1_acc	1	2.810224	p20.jpg	175
35.33	6	5_acc	3	3.207985	p14.jpg	175
43.76	6	1_inacc	2	2.834476	p24.jpg	175
54.75	6	5_acc	3	2.827324	p9.jpg	175
63.55	6	1_acc	1	1.85646	p16.jpg	175
75.27	6	5_inacc	1	2.789486	p8.jpg	175
84.43	6	5_acc	2	3.758455	p6.jpg	175
94.32	6	5_acc	4	2.162091	p13.jpg	175
102.39	6	1_inacc	3	2.274205	p1.jpg	175
111.54	6	1_inacc	1	2.337347	p15.jpg	175
119.98	6	1_acc	2	2.127913	p17.jpg	175
130.61	6	1_inacc	3	2.589634	p5.jpg	175
140.87	6	5_acc	4	2.014209	p3.jpg	175
151.13	6	5_acc	1	2.485846	p4.jpg	175
160.65	6	1_inacc	2	2.667413	p19.jpg	175
169.44	6	5_inacc	3	2.94865	p10.jpg	175
181.15	6	1_inacc	2	1.82016	p22.jpg	175
191.05	6	5_inacc	2	1.667619	p7.jpg	175
201.67	6	1_inacc	3	1.861519	p12.jpg	175
211.2	6	5_acc	3	3.061034	p2.jpg	175
222.53	6	5_acc	4	3.143857	p11.jpg	175
233.51	6	1_inacc	3	2.905013	p21.jpg	175
3.079	6	5_acc	3	2.772487	p7.jpg	182
13.009	6	5_acc	3	2.98806	p11.jpg	182
22.538	6	5_acc	4	3.440323	p6.jpg	182
33.525	6	1_acc	1	2.505111	p19.jpg	182
43.775	6	5_inacc	4	4.612512	p23.jpg	182
54.388	6	1_acc	2	3.019777	p24.jpg	182
63.909	6	1_acc	4	4.10108	p16.jpg	182
72.348	6	1_inacc	3	5.226866	p17.jpg	182
83.348	6	1_acc	1	3.460298	p1.jpg	182
95.056	6	1_inacc	3	5.19677	p20.jpg	182
103.858	6	1_inacc	2	4.483804	p18.jpg	182
114.468	6	5_acc	2	3.785174	p3.jpg	182
124.715	6	1_acc	1	3.613542	p12.jpg	182
132.783	6	5_inacc	2	5.295263	p2.jpg	182
140.849	6	1_inacc	3	3.377146	p5.jpg	182
152.926	6	5_acc	3	2.517614	p9.jpg	182
161.348	6	1_inacc	1	3.885009	p21.jpg	182
172.686	6	5_inacc	2	3.920397	p10.jpg	182
184.386	6	5_acc	2	4.248871	p4.jpg	182
195.744	6	1_inacc	4	3.647415	p22.jpg	182
204.914	6	5_acc	3	4.451513	p13.jpg	182
213.709	6	5_acc	4	2.328472	p14.jpg	182
222.858	6	1_acc	2	3.361851	p15.jpg	182
232.748	6	5_acc	4	4.133209	p8.jpg	182
3.1	6	5_inacc	2	1.631476	p13.jpg	184
11.9	6	1_acc	1	2.390233	p21.jpg	184
22.2	6	1_acc	4	2.106484	p24.jpg	184
33.5	6	5_inacc	3	1.805092	p6.jpg	184
43.4	6	5_inacc	2	2.401517	p14.jpg	184
54	6	5_inacc	3	2.019062	p4.jpg	184
64.3	6	1_inacc	3	2.629925	p22.jpg	184
73.1	6	1_inacc	2	4.432005	p18.jpg	184
83	6	5_inacc	3	3.312257	p9.jpg	184
94.7	6	5_inacc	3	2.450592	p2.jpg	184
104.3	6	5_acc	4	2.220004	p11.jpg	184
113.4	6	5_acc	2	2.05207	p23.jpg	184
124.4	6	5_inacc	2	2.929793	p3.jpg	184
135.7	6	1_inacc	3	1.299076	p17.jpg	184
145.3	6	1_inacc	3	2.149535	p16.jpg	184
155.9	6	1_acc	2	1.89012	p1.jpg	184
164.3	6	1_acc	4	2.247261	p12.jpg	184
176.4	6	1_inacc	4	1.215801	p20.jpg	184
185.6	6	5_acc	4	2.356751	p8.jpg	184
193.6	6	1_inacc	4	3.764275	p5.jpg	184
201.7	6	5_acc	1	1.784526	p7.jpg	184
210.2	6	5_inacc	4	1.2616	p10.jpg	184
222.2	6	1_inacc	4	3.447313	p19.jpg	184
233.9	6	1_acc	1	3.496605	p15.jpg	184
3.06	6	5_inacc	4	4.572574	p21.jpg	186
14.78	6	5_inacc	2	4.497486	p19.jpg	186
23.96	6	1_acc	2	5.00693	p7.jpg	186
34.57	6	1_acc	1	2.685772	p11.jpg	186
43.38	6	5_inacc	3	3.457039	p18.jpg	186
55.46	6	1_inacc	1	3.825857	p10.jpg	186
66.43	6	1_acc	2	3.345039	p8.jpg	186
78.5	6	1_miss	NA	NA	p2.jpg	186
89.86	6	1_inacc	3	4.603232	p4.jpg	186
99.75	6	5_acc	1	3.556192	p12.jpg	186
110.72	6	5_inacc	3	2.991783	p15.jpg	186
118.79	6	5_acc	1	2.185328	p20.jpg	186
127.22	6	1_acc	3	5.843113	p13.jpg	186
136.38	6	1_miss	NA	NA	p6.jpg	186
144.45	6	5_acc	4	3.311149	p22.jpg	186
155.81	6	1_inacc	1	4.869815	p14.jpg	186
166.06	6	5_miss	NA	NA	p24.jpg	186
175.57	6	5_miss	NA	NA	p1.jpg	186
184.37	6	5_inacc	2	3.00577	p16.jpg	186
194.62	6	5_inacc	1	3.356531	p17.jpg	186
205.24	6	1_inacc	1	3.465599	p3.jpg	186
214.77	6	1_inacc	4	3.451676	p9.jpg	186
223.21	6	5_inacc	4	3.182685	p5.jpg	186
233.09	6	1_acc	4	4.644989	p23.jpg	186
3.06	6	5_inacc	2	2.350607	p3.jpg	188
11.52	6	1_inacc	4	3.412881	p24.jpg	188
19.6	6	5_acc	4	3.544661	p6.jpg	188
29.49	6	5_inacc	1	3.432339	p9.jpg	188
39.03	6	1_acc	2	1.52211	p16.jpg	188
47.45	6	1_acc	4	1.842352	p21.jpg	188
59.16	6	5_acc	1	4.838178	p11.jpg	188
70.87	6	5_acc	3	4.864834	p2.jpg	188
82.95	6	5_acc	3	2.518836	p7.jpg	188
93.21	6	1_inacc	1	3.92624	p22.jpg	188
102.74	6	1_acc	2	2.547416	p19.jpg	188
113.72	6	1_acc	3	4.835299	p18.jpg	188
123.97	6	5_acc	3	1.919182	p4.jpg	188
133.13	6	5_acc	1	4.175739	p23.jpg	188
144.48	6	1_acc	4	2.383487	p1.jpg	188
155.11	6	5_inacc	2	2.953247	p8.jpg	188
163.91	6	5_inacc	2	2.876408	p10.jpg	188
174.89	6	5_inacc	2	2.469001	p13.jpg	188
182.96	6	1_acc	2	1.739683	p12.jpg	188
192.86	6	1_inacc	1	3.464345	p20.jpg	188
201.65	6	1_acc	1	2.103688	p15.jpg	188
210.81	6	5_inacc	2	3.558298	p14.jpg	188
221.43	6	1_acc	3	3.897584	p5.jpg	188
233.5	6	1_inacc	1	5.986026	p17.jpg	188
3.08	6	5_acc	3	1.424239	p7.jpg	191
13	6	1_acc	4	4.921867	p22.jpg	191
24.72	6	5_acc	2	1.627763	p4.jpg	191
35.69	6	1_acc	2	4.000474	p12.jpg	191
44.88	6	5_acc	2	1.508849	p23.jpg	191
56.22	6	1_acc	2	4.515059	p20.jpg	191
66.48	6	5_acc	4	2.320257	p2.jpg	191
74.55	6	5_acc	2	1.853201	p3.jpg	191
86.26	6	1_acc	2	2.122906	p16.jpg	191
96.15	6	1_acc	2	4.755363	p19.jpg	191
106.75	6	1_acc	1	1.83788	p1.jpg	191
115.18	6	5_acc	3	1.488121	p9.jpg	191
123.98	6	5_acc	1	1.602054	p14.jpg	191
134.6	6	1_acc	4	2.210675	p5.jpg	191
145.95	6	1_acc	4	2.499053	p15.jpg	191
154.75	6	1_acc	4	3.473161	p21.jpg	191
165.73	6	1_acc	3	1.639334	p18.jpg	191
175.25	6	5_acc	4	1.793935	p8.jpg	191
185.51	6	5_acc	1	1.695566	p13.jpg	191
197.58	6	5_acc	1	1.208798	p6.jpg	191
206.74	6	1_acc	3	1.899306	p24.jpg	191
214.81	6	5_acc	1	1.493242	p10.jpg	191
223.24	6	5_acc	4	2.5342	p11.jpg	191
232.77	6	1_acc	1	1.90964	p17.jpg	191
3.082	6	1_acc	4	4.393406	p24.jpg	193
12.265	6	1_inacc	1	2.653159	p21.jpg	193
22.159	6	1_acc	1	4.495785	p16.jpg	193
32.786	6	5_acc	4	3.685995	p14.jpg	193
41.96	6	5_inacc	4	5.041286	p3.jpg	193
50.033	6	1_acc	2	2.296317	p1.jpg	193
61.015	6	1_acc	3	4.678419	p12.jpg	193
70.549	6	1_acc	4	1.988965	p18.jpg	193
78.997	6	5_acc	2	3.659988	p4.jpg	193
91.074	6	1_inacc	3	4.873709	p22.jpg	193
101.329	6	5_acc	4	3.148829	p9.jpg	193
112.676	6	1_acc	3	3.897566	p19.jpg	193
121.478	6	5_acc	2	4.770976	p10.jpg	193
133.18	6	5_inacc	1	4.97933	p6.jpg	193
143.813	6	5_inacc	2	5.124486	p13.jpg	193
152.242	6	5_acc	3	2.129828	p11.jpg	193
162.49	6	5_acc	4	2.87656	p2.jpg	193
172.011	6	5_acc	2	2.007921	p23.jpg	193
181.891	6	1_acc	1	2.236911	p15.jpg	193
193.958	6	1_acc	4	4.981888	p5.jpg	193
205.309	6	5_inacc	2	3.077046	p8.jpg	193
216.29	6	5_acc	2	3.278944	p7.jpg	193
225.088	6	1_miss	NA	NA	p17.jpg	193
236.802	6	1_inacc	2	3.42731	p20.jpg	193
3.08	6	5_inacc	4	2.31505	p8.jpg	197
12.3	6	1_acc	3	2.325095	p15.jpg	197
21.85	6	1_inacc	1	2.816687	p17.jpg	197
33.943	6	1_acc	1	2.572837	p24.jpg	197
42.773	6	5_acc	3	3.275156	p9.jpg	197
52.695	6	1_inacc	1	2.780544	p18.jpg	197
60.771	6	1_acc	1	2.078469	p5.jpg	197
72.145	6	5_inacc	3	4.729806	p23.jpg	197
83.866	6	5_acc	4	3.621941	p10.jpg	197
95.96	6	5_inacc	2	4.419473	p13.jpg	197
106.573	6	1_acc	4	1.902622	p16.jpg	197
115	6	1_acc	3	2.314506	p12.jpg	197
125.622	6	1_acc	1	2.58321	p1.jpg	197
137.346	6	1_acc	2	2.228651	p21.jpg	197
146.507	6	5_acc	3	2.031874	p3.jpg	197
156.769	6	5_acc	2	1.807098	p7.jpg	197
168.14	6	5_inacc	4	3.008466	p6.jpg	197
176.567	6	5_acc	2	1.701497	p2.jpg	197
184.633	6	5_inacc	3	3.588957	p14.jpg	197
193.441	6	5_acc	4	2.35185	p11.jpg	197
204.421	6	1_inacc	4	3.425461	p19.jpg	197
214.676	6	5_acc	4	2.562309	p4.jpg	197
224.203	6	1_inacc	4	3.923322	p22.jpg	197
234.091	6	1_inacc	4	4.058767	p20.jpg	197
3.09	6	1_acc	2	3.19691	p23.jpg	202
13.01	6	1_acc	4	4.843501	p3.jpg	202
21.46	6	5_acc	4	2.934018	p12.jpg	202
29.59	6	1_acc	3	2.250374	p7.jpg	202
38.75	6	1_acc	1	2.101324	p13.jpg	202
49.02	6	1_acc	3	4.527899	p9.jpg	202
58.55	6	1_acc	4	3.565729	p8.jpg	202
69.18	6	1_acc	1	3.091122	p2.jpg	202
78	6	5_acc	3	2.161525	p15.jpg	202
89.34	6	5_acc	1	1.196787	p5.jpg	202
98.15	6	5_acc	1	4.798541	p20.jpg	202
109.16	6	5_acc	2	4.262306	p22.jpg	202
119.05	6	5_inacc	3	4.092183	p16.jpg	202
130.76	6	5_acc	1	4.801929	p17.jpg	202
141.38	6	5_acc	1	5.447815	p19.jpg	202
149.82	6	1_inacc	4	4.634611	p6.jpg	202
160.79	6	1_acc	4	2.945392	p11.jpg	202
172.52	6	1_acc	4	4.367243	p4.jpg	202
184.61	6	5_acc	3	4.126029	p1.jpg	202
194.86	6	1_acc	2	3.025234	p14.jpg	202
202.92	6	5_inacc	3	3.359382	p21.jpg	202
214.99	6	5_acc	2	4.097844	p24.jpg	202
224.51	6	1_acc	1	3.172968	p10.jpg	202
235.86	6	5_acc	4	3.948715	p18.jpg	202
3.1	6	1_inacc	2	3.918049	p3.jpg	203
12.3	6	1_acc	2	4.137335	p11.jpg	203
22.5	6	5_acc	4	1.878446	p18.jpg	203
31.3	6	5_inacc	1	4.630891	p22.jpg	203
42.7	6	5_inacc	1	4.121198	p20.jpg	203
53.3	6	5_inacc	4	4.679959	p24.jpg	203
63.2	6	5_acc	2	4.567326	p19.jpg	203
74.2	6	1_inacc	2	3.555636	p2.jpg	203
84.8	6	1_inacc	3	3.898346	p7.jpg	203
92.9	6	1_acc	3	2.311101	p8.jpg	203
104.6	6	1_inacc	3	3.229496	p14.jpg	203
113.1	6	1_acc	2	1.62039	p10.jpg	203
124.1	6	5_inacc	2	4.30E-04	p5.jpg	203
133.2	6	1_inacc	2	3.140919	p4.jpg	203
145.3	6	1_acc	1	2.731649	p13.jpg	203
156.6	6	5_acc	1	1.414742	p12.jpg	203
164.7	6	5_inacc	3	2.372226	p1.jpg	203
173.1	6	5_inacc	1	3.752287	p17.jpg	203
183.4	6	5_miss	NA	NA	p15.jpg	203
195.1	6	5_acc	3	1.66188	p16.jpg	203
204.6	6	1_inacc	1	5.245921	p23.jpg	203
214.5	6	1_inacc	3	2.784597	p6.jpg	203
223.3	6	1_acc	2	3.305116	p9.jpg	203
232.9	6	5_acc	4	3.198034	p21.jpg	203
3.07	6	5_acc	2	4.661243	p17.jpg	204
11.9	6	5_inacc	3	3.957497	p20.jpg	204
22.15	6	1_inacc	4	3.9947	p3.jpg	204
31.32	6	1_inacc	4	3.232041	p9.jpg	204
39.77	6	1_acc	3	2.356801	p6.jpg	204
51.83	6	1_acc	4	2.628859	p7.jpg	204
63.54	6	5_acc	4	4.288864	p5.jpg	204
72.71	6	1_acc	3	2.492207	p11.jpg	204
84.06	6	1_inacc	3	3.804857	p4.jpg	204
95.04	6	1_inacc	4	3.461019	p23.jpg	204
104.92	6	5_acc	3	1.102809	p21.jpg	204
116.99	6	5_acc	3	2.20201	p16.jpg	204
125.05	6	5_acc	4	3.581433	p24.jpg	204
136.39	6	1_inacc	2	3.295542	p14.jpg	204
147	6	1_inacc	3	2.82642	p8.jpg	204
156.53	6	5_acc	1	3.618109	p22.jpg	204
167.14	6	5_acc	1	1.260755	p18.jpg	204
176.66	6	5_inacc	1	2.137263	p15.jpg	204
186.55	6	1_inacc	4	2.171075	p2.jpg	204
194.62	6	5_inacc	3	3.23753	p19.jpg	204
205.6	6	1_acc	4	3.186816	p13.jpg	204
215.86	6	5_acc	3	5.277563	p12.jpg	204
224.29	6	5_acc	3	3.924982	p1.jpg	204
236	6	1_inacc	1	3.859468	p10.jpg	204
3.07	6	1_acc	3	5.122125	p18.jpg	205
11.9	6	5_acc	4	2.68623	p7.jpg	205
21.81	6	1_inacc	3	3.82777	p24.jpg	205
32.81	6	5_acc	4	3.368854	p10.jpg	205
44.17	6	1_acc	2	1.672919	p16.jpg	205
54.43	6	5_inacc	2	4.029422	p3.jpg	205
63.22	6	5_acc	2	3.364807	p13.jpg	205
73.49	6	5_inacc	3	4.972867	p6.jpg	205
82.68	6	1_inacc	2	4.80708	p5.jpg	205
90.79	6	1_acc	1	1.241184	p1.jpg	205
100.32	6	5_acc	2	2.849437	p2.jpg	205
109.86	6	5_acc	1	2.90174	p9.jpg	205
121.56	6	1_inacc	2	4.354818	p20.jpg	205
131.45	6	5_inacc	3	4.072083	p11.jpg	205
143.53	6	5_acc	4	5.110737	p23.jpg	205
154.51	6	5_acc	4	5.346414	p14.jpg	205
162.95	6	5_acc	4	5.211507	p4.jpg	205
173.59	6	1_inacc	3	2.798811	p21.jpg	205
182.76	6	1_inacc	2	4.512678	p17.jpg	205
194.48	6	5_inacc	2	3.633927	p8.jpg	205
202.56	6	1_inacc	2	4.458876	p15.jpg	205
213.9	6	1_inacc	1	3.662336	p12.jpg	205
224.52	6	1_inacc	1	2.279833	p22.jpg	205
232.95	6	1_inacc	4	4.574818	p19.jpg	205
3.1	6	5_acc	2	2.772499	p16.jpg	212
11.9	6	1_inacc	1	3.058489	p14.jpg	212
20.7	6	1_acc	1	1.728272	p9.jpg	212
32	6	5_acc	1	1.629259	p24.jpg	212
41.2	6	5_acc	3	2.42438	p18.jpg	212
50.7	6	5_acc	4	1.768237	p17.jpg	212
60.6	6	5_acc	4	2.425175	p22.jpg	212
72	6	1_acc	3	3.119997	p13.jpg	212
83	6	1_acc	4	1.458302	p8.jpg	212
93.6	6	5_acc	2	1.912052	p15.jpg	212
104.6	6	1_acc	4	4.03198	p10.jpg	212
113.7	6	5_acc	3	1.748183	p19.jpg	212
124.3	6	1_acc	1	1.815752	p7.jpg	212
134.2	6	5_acc	1	1.933331	p5.jpg	212
146.3	6	1_acc	4	3.554519	p23.jpg	212
158	6	5_acc	3	4.424612	p12.jpg	212
168.2	6	1_acc	4	4.961724	p3.jpg	212
176.3	6	5_acc	1	1.977998	p20.jpg	212
184.7	6	1_acc	1	1.880289	p4.jpg	212
193.2	6	1_acc	2	5.336063	p11.jpg	212
203.4	6	1_inacc	3	5.595516	p6.jpg	212
215.5	6	5_acc	1	5.810472	p1.jpg	212
227.2	6	5_acc	4	1.9393	p21.jpg	212
235.3	6	1_acc	4	1.41166	p2.jpg	212
3.1	6	1_inacc	2	0.00214215	p7.jpg	220
15.2	6	5_acc	2	0.001092922	p21.jpg	220
25.8	6	1_acc	2	0.3641563	p3.jpg	220
36.8	6	1_inacc	4	2.426828	p14.jpg	220
45.2	6	1_inacc	2	2.095371	p8.jpg	220
53.3	6	1_acc	4	2.070405	p10.jpg	220
64	6	1_inacc	1	4.289588	p6.jpg	220
72.8	6	5_acc	3	3.368351	p20.jpg	220
82.7	6	5_inacc	3	3.71856	p15.jpg	220
94	6	5_acc	1	2.62911	p22.jpg	220
105	6	1_inacc	2	2.300882	p4.jpg	220
116.7	6	1_acc	2	1.805758	p13.jpg	220
125.9	6	5_acc	3	3.695325	p19.jpg	220
134.3	6	5_inacc	2	4.17562	p5.jpg	220
143.8	6	5_inacc	1	3.027228	p1.jpg	220
152.6	6	1_inacc	4	1.740777	p2.jpg	220
162.9	6	5_inacc	2	1.5837	p16.jpg	220
175	6	5_inacc	2	1.702849	p18.jpg	220
184.1	6	5_inacc	3	2.856222	p24.jpg	220
195.8	6	1_inacc	2	1.285712	p23.jpg	220
207.2	6	5_inacc	3	2.104417	p17.jpg	220
215.3	6	1_acc	4	3.118845	p9.jpg	220
225.1	6	5_acc	1	3.124879	p12.jpg	220
235.4	6	1_inacc	2	1.538468	p11.jpg	220
3.1	6	5_inacc	1	3.578161	p12.jpg	221
14.1	6	1_acc	1	2.387434	p3.jpg	221
25.5	6	1_acc	4	3.613231	p2.jpg	221
33.9	6	5_acc	2	4.993463	p15.jpg	221
43.5	6	1_inacc	1	2.842694	p14.jpg	221
54.5	6	1_inacc	2	4.012221	p9.jpg	221
63.2	6	5_inacc	3	5.49439	p20.jpg	221
71.3	6	5_acc	2	4.034542	p21.jpg	221
79.8	6	5_acc	2	3.107127	p17.jpg	221
91.5	6	1_miss	NA	NA	p13.jpg	221
101	6	1_inacc	2	4.620892	p7.jpg	221
112.7	6	5_inacc	1	3.885003	p24.jpg	221
123	6	1_inacc	3	3.65477	p8.jpg	221
133.6	6	1_inacc	1	4.337158	p10.jpg	221
141.6	6	5_inacc	2	5.035597	p16.jpg	221
153.7	6	5_acc	4	2.650939	p19.jpg	221
165.1	6	5_inacc	1	3.325416	p18.jpg	221
173.9	6	5_inacc	4	3.764958	p5.jpg	221
183	6	5_inacc	1	3.53159	p22.jpg	221
192.9	6	5_inacc	3	3.673704	p1.jpg	221
203.5	6	1_acc	2	1.798392	p4.jpg	221
215.6	6	1_inacc	1	3.129346	p11.jpg	221
225.8	6	1_acc	2	4.300601	p23.jpg	221
235.7	6	1_inacc	4	2.789054	p6.jpg	221
3.08	6	5_acc	4	5.319416	p13.jpg	223
14.09	6	1_inacc	1	5.107802	p21.jpg	223
22.17	6	5_acc	1	2.084782	p23.jpg	223
30.25	6	5_acc	4	3.740735	p6.jpg	223
38.69	6	1_acc	1	1.056905	p1.jpg	223
49.67	6	5_inacc	3	4.214135	p4.jpg	223
58.47	6	1_acc	3	1.262087	p12.jpg	223
68.36	6	1_acc	2	1.060557	p16.jpg	223
77.55	6	5_acc	4	1.108935	p11.jpg	223
89.62	6	5_acc	1	2.181223	p2.jpg	223
99.16	6	5_acc	1	1.38576	p8.jpg	223
109.05	6	1_inacc	4	4.9071	p20.jpg	223
117.85	6	5_acc	4	3.267724	p14.jpg	223
129.19	6	5_acc	4	3.24607	p9.jpg	223
140.9	6	1_acc	4	2.369847	p22.jpg	223
152.24	6	1_inacc	4	2.898509	p15.jpg	223
162.49	6	1_inacc	3	3.613637	p17.jpg	223
174.56	6	5_inacc	4	3.593294	p7.jpg	223
185.19	6	1_acc	2	1.51301	p19.jpg	223
193.63	6	5_acc	3	3.617391	p3.jpg	223
203.88	6	1_acc	2	2.464351	p18.jpg	223
214.5	6	1_inacc	4	4.448877	p5.jpg	223
226.21	6	1_acc	3	3.214221	p24.jpg	223
235.74	6	5_inacc	1	2.325362	p10.jpg	223
3.1	6	5_acc	1	2.528188	p24.jpg	224
13	6	1_inacc	4	3.611359	p4.jpg	224
23.6	6	5_acc	1	1.884626	p12.jpg	224
35.3	6	1_acc	1	2.554199	p23.jpg	224
46.7	6	5_inacc	1	4.850313	p20.jpg	224
56.2	6	5_inacc	2	2.370987	p18.jpg	224
66.8	6	5_inacc	3	3.705384	p1.jpg	224
74.9	6	5_inacc	1	3.977748	p5.jpg	224
85.1	6	1_inacc	2	2.396736	p13.jpg	224
93.6	6	1_inacc	1	2.596802	p3.jpg	224
102.7	6	5_inacc	1	3.747746	p21.jpg	224
111.9	6	1_inacc	4	3.825889	p10.jpg	224
122.9	6	1_acc	1	1.083772	p7.jpg	224
133.1	6	5_acc	4	2.804044	p22.jpg	224
144.5	6	5_inacc	4	3.201519	p16.jpg	224
155.5	6	1_inacc	2	2.9768	p14.jpg	224
165.3	6	5_acc	3	3.320273	p17.jpg	224
174.1	6	5_acc	3	1.734413	p19.jpg	224
182.6	6	1_acc	1	1.671021	p8.jpg	224
191.4	6	1_acc	3	4.242777	p2.jpg	224
199.5	6	5_inacc	3	3.249956	p15.jpg	224
211.5	6	1_acc	2	2.105315	p6.jpg	224
223.2	6	1_inacc	3	3.044475	p11.jpg	224
232.8	6	1_acc	3	3.496275	p9.jpg	224
3.1	6	5_acc	2	2.307745	p6.jpg	226
11.9	6	1_acc	4	2.974828	p1.jpg	226
22.5	6	5_inacc	2	2.495547	p3.jpg	226
33.5	6	5_inacc	3	2.913202	p2.jpg	226
42.7	6	1_acc	1	2.931241	p20.jpg	226
54.8	6	5_inacc	2	2.74624	p8.jpg	226
66.1	6	1_acc	2	3.615739	p22.jpg	226
74.2	6	5_acc	2	2.061723	p14.jpg	226
84.8	6	1_inacc	3	3.019368	p24.jpg	226
94	6	1_acc	2	2.715276	p19.jpg	226
102.4	6	5_inacc	3	2.52954	p10.jpg	226
114.5	6	1_acc	1	1.991648	p16.jpg	226
123.3	6	5_acc	2	2.187596	p7.jpg	226
132.8	6	5_inacc	1	2.715709	p11.jpg	226
143.1	6	1_inacc	2	1.582349	p18.jpg	226
152.6	6	5_acc	4	2.84684	p13.jpg	226
162.5	6	1_inacc	2	1.298639	p21.jpg	226
172.4	6	1_acc	3	2.6008	p12.jpg	226
183.4	6	1_acc	4	2.893898	p5.jpg	226
193.6	6	5_inacc	1	2.807469	p23.jpg	226
202.1	6	5_inacc	3	3.394883	p9.jpg	226
213.8	6	5_acc	1	1.701907	p4.jpg	226
221.8	6	1_acc	3	1.957398	p17.jpg	226
233.5	6	1_acc	3	1.84492	p15.jpg	226
3.1	6	1_inacc	3	3.286451	p17.jpg	227
11.9	6	1_inacc	2	2.039622	p19.jpg	227
20.3	6	5_acc	1	2.306957	p10.jpg	227
32.1	6	5_acc	2	2.160426	p4.jpg	227
40.5	6	5_inacc	2	3.949637	p23.jpg	227
50	6	1_acc	2	3.572902	p15.jpg	227
60.7	6	5_acc	4	2.39389	p3.jpg	227
69.5	6	1_acc	1	4.448687	p22.jpg	227
81.2	6	1_inacc	2	3.732529	p12.jpg	227
90.7	6	1_inacc	2	4.229634	p20.jpg	227
98.8	6	1_acc	4	1.489522	p16.jpg	227
108	6	5_acc	2	2.576601	p7.jpg	227
120	6	1_inacc	4	3.509038	p5.jpg	227
130.3	6	5_inacc	3	2.95082	p6.jpg	227
139.5	6	1_acc	1	2.793315	p18.jpg	227
150.4	6	5_acc	4	2.868437	p2.jpg	227
161.8	6	5_inacc	1	3.563338	p11.jpg	227
171.7	6	5_acc	3	4.020462	p9.jpg	227
182.7	6	5_acc	1	2.479366	p14.jpg	227
193.3	6	1_inacc	1	2.680582	p21.jpg	227
203.2	6	5_acc	2	3.745046	p13.jpg	227
211.3	6	1_acc	2	3.77656	p1.jpg	227
223.3	6	1_inacc	1	3.320723	p24.jpg	227
234.7	6	5_inacc	4	2.914873	p8.jpg	227
3.1	6	1_acc	3	5.15464	p16.jpg	228
15.2	6	5_acc	4	5.856939	p14.jpg	228
26.6	6	1_acc	3	2.840373	p17.jpg	228
34.7	6	5_acc	4	1.879665	p3.jpg	228
45.3	6	1_acc	3	2.98089	p1.jpg	228
55.2	6	1_acc	2	4.490266	p5.jpg	228
64.7	6	5_acc	4	4.946307	p23.jpg	228
75	6	5_inacc	3	5.984378	p8.jpg	228
83.8	6	5_inacc	2	3.653818	p2.jpg	228
93.3	6	1_acc	1	3.089281	p12.jpg	228
104.7	6	1_acc	4	5.502763	p22.jpg	228
113.1	6	1_inacc	1	4.308417	p24.jpg	228
122.2	6	1_miss	NA	NA	p20.jpg	228
132.5	6	5_inacc	3	4.70507	p10.jpg	228
143.5	6	1_inacc	1	3.121083	p21.jpg	228
152.3	6	1_miss	NA	NA	p19.jpg	228
163.3	6	5_inacc	3	5.233658	p11.jpg	228
173.1	6	1_inacc	3	5.014186	p18.jpg	228
183.8	6	5_miss	NA	NA	p6.jpg	228
191.8	6	5_inacc	2	3.817234	p4.jpg	228
203.9	6	1_acc	1	4.578512	p15.jpg	228
215.6	6	5_acc	2	5.887634	p9.jpg	228
224.8	6	5_inacc	2	4.62674	p7.jpg	228
233.2	6	5_miss	NA	NA	p13.jpg	228
3	6	1_acc	1	1.64673	p2.jpg	229
14.8	6	5_acc	3	4.08162	p12.jpg	229
25	6	5_acc	4	1.714909	p18.jpg	229
36.4	6	5_inacc	3	4.010725	p22.jpg	229
47.4	6	1_acc	1	2.151687	p9.jpg	229
58.3	6	1_inacc	1	2.155614	p13.jpg	229
67.9	6	1_acc	1	2.739779	p6.jpg	229
77.8	6	1_inacc	1	5.82103	p23.jpg	229
85.8	6	5_acc	3	3.793053	p15.jpg	229
93.9	6	5_acc	1	2.3759	p21.jpg	229
102.7	6	5_acc	1	1.31656	p1.jpg	229
112.2	6	5_acc	3	2.978514	p17.jpg	229
123.9	6	1_acc	2	1.395039	p7.jpg	229
132.4	6	5_acc	4	1.898162	p16.jpg	229
140.8	6	5_inacc	1	3.132284	p24.jpg	229
150	6	5_inacc	1	3.698538	p20.jpg	229
160.6	6	1_acc	4	3.111439	p3.jpg	229
169.4	6	1_inacc	3	2.144886	p4.jpg	229
181.4	6	5_acc	2	2.882305	p19.jpg	229
191.3	6	5_inacc	1	3.114042	p5.jpg	229
203.4	6	1_acc	2	4.454577	p8.jpg	229
213.7	6	1_acc	1	4.711058	p14.jpg	229
222.8	6	1_acc	4	1.541595	p10.jpg	229
233.4	6	1_inacc	2	4.526816	p11.jpg	229