onset	duration	trial_type	stim	response	response_time	sub
3	6	5	c24.jpg	6	2.816374	103
15	6	1	c6.jpg	1	4.645316	103
23.8	6	1	c2.jpg	2	1.792062	103
32.9	6	1	c19.jpg	1	3.114605	103
43.2	6	5	c22.jpg	5	4.115006	103
54.1	6	5	c4.jpg	3	3.873159	103
63.6	6	1	c17.jpg	1	1.82841	103
71.6	6	5	c7.jpg	4	3.572027	103
81.8	6	5	c14.jpg	4	2.723316	103
90.6	6	5	c12.jpg	4	3.074483	103
101.9	6	1	c16.jpg	1	2.215564	103
113.6	6	1	c13.jpg	2	3.064997	103
123.1	6	5	c15.jpg	4	4.019725	103
131.5	6	1	c1.jpg	3	4.239323	103
143.5	6	1	c11.jpg	2	4.573877	103
154.1	6	1	c10.jpg	1	3.282259	103
165	6	5	c23.jpg	3	5.05792	103
174.2	6	5	c3.jpg	4	3.542782	103
184	6	1	c21.jpg	2	3.114993	103
193.9	6	1	c8.jpg	1	1.765887	103
205.2	6	5	c20.jpg	5	2.600758	103
216.9	6	5	c5.jpg	5	2.272908	103
227.5	6	1	c18.jpg	1	3.57423	103
235.8	6	5	c9.jpg	4	3.033168	103
3	6	5	p15.jpg	6	1.435255	105
12.9	6	1	p9.jpg	2	2.146174	105
20.9	6	5	p12.jpg	6	2.291057	105
29.7	6	1	p7.jpg	1	1.731325	105
39.6	6	1	p10.jpg	1	1.63696	105
50.1	6	1	p23.jpg	1	1.480892	105
58.6	6	5	p19.jpg	5	2.468807	105
70.2	6	1	p4.jpg	4	2.926358	105
79.4	6	1	p6.jpg	4	2.53813	105
90.3	6	5	p22.jpg	7	3.261668	105
98.7	6	1	p14.jpg	2	2.169421	105
108.2	6	1	p2.jpg	1	2.085568	105
118.5	6	5	p17.jpg	6	2.215929	105
128	6	5	p20.jpg	5	1.679824	105
139.3	6	5	p24.jpg	7	1.263354	105
148.4	6	5	p21.jpg	6	1.489218	105
159	6	5	p16.jpg	6	1.512828	105
167	6	1	p8.jpg	3	2.656788	105
178.7	6	5	p5.jpg	7	1.573295	105
188.9	6	5	p1.jpg	5	2.078252	105
201	6	1	p3.jpg	1	1.612992	105
213	6	1	p13.jpg	1	1.401791	105
224.3	6	1	p11.jpg	1	1.430612	105
233.1	6	5	p18.jpg	7	1.576956	105
3.03	6	1	p13.jpg	3	2.53088	106
11.09	6	1	p2.jpg	1	3.713184	106
22.04	6	5	p15.jpg	4	2.174721	106
32.99	6	5	p17.jpg	5	3.961922	106
44.67	6	5	p19.jpg	5	1.277526	106
54.17	6	5	p18.jpg	4	2.380661	106
62.57	6	5	p12.jpg	3	1.878421	106
74.61	6	1	p10.jpg	3	2.194034	106
83.75	6	1	p3.jpg	4	1.897537	106
94.34	6	5	p22.jpg	3	2.403105	106
105.66	6	1	p4.jpg	3	2.026066	106
114.06	6	1	p11.jpg	2	2.020768	106
125.38	6	5	p5.jpg	3	2.761151	106
134.51	6	1	p14.jpg	1	2.083661	106
144	6	5	p1.jpg	3	1.965334	106
154.22	6	1	p9.jpg	3	2.011717	106
165.9	6	1	p6.jpg	3	3.74029	106
177.94	6	5	p16.jpg	3	2.850374	106
187.8	6	5	p21.jpg	3	1.916724	106
198.39	6	5	p24.jpg	5	1.094952	106
206.43	6	5	p20.jpg	2	2.374643	106
215.2	6	1	p23.jpg	3	1.648878	106
225.05	6	1	p8.jpg	2	2.784339	106
233.82	6	1	p7.jpg	1	2.362695	106
3.02	6	1	c15.jpg	3	2.474994	107
14.71	6	5	c11.jpg	4	3.128719	107
23.48	6	1	c7.jpg	2	1.493956	107
32.24	6	5	c8.jpg	6	1.287642	107
41.38	6	5	c1.jpg	2	2.246819	107
53.06	6	1	c3.jpg	3	1.876229	107
63.28	6	5	c2.jpg	3	2.215478	107
71.31	6	1	c4.jpg	2	2.313243	107
81.16	6	5	c19.jpg	5	1.780534	107
93.2	6	1	c24.jpg	1	1.433431	107
104.14	6	1	c5.jpg	2	2.515814	107
112.53	6	1	c23.jpg	2	4.57E-04	107
124.56	6	5	c18.jpg	4	1.885469	107
134.42	6	5	c6.jpg	6	2.540935	107
144.63	6	5	c16.jpg	3	3.644256	107
155.21	6	1	c9.jpg	4	2.002104	107
166.52	6	1	c12.jpg	4	2.401	107
174.56	6	1	c22.jpg	3	1.685789	107
185.15	6	1	c20.jpg	3	1.733419	107
194.63	6	5	c21.jpg	6	2.05349	107
204.12	6	5	c10.jpg	3	2.182143	107
212.51	6	1	c14.jpg	2	2.132109	107
221.63	6	5	c13.jpg	2	4.01E-04	107
232.58	6	5	c17.jpg	4	1.395572	107
3.02	6	1	c6.jpg	2	2.764824	110
12.54	6	1	c2.jpg	2	1.811112	110
20.95	6	5	c15.jpg	3	1.34824	110
30.8	6	1	c13.jpg	2	3.322608	110
42.86	6	5	c3.jpg	2	1.701401	110
51.26	6	5	c7.jpg	3	2.250134	110
60.02	6	1	c8.jpg	2	1.783184	110
70.96	6	5	c12.jpg	2	1.303609	110
82.27	6	1	c18.jpg	3	3.372129	110
91.4	6	1	c16.jpg	1	2.506055	110
101.25	6	1	c17.jpg	2	1.750525	110
111.83	6	5	c4.jpg	3	1.615686	110
122.78	6	5	c22.jpg	2	1.450775	110
133	6	5	c20.jpg	4	1.897163	110
141.04	6	1	c11.jpg	2	1.63848	110
151.26	6	5	c5.jpg	4	1.578239	110
161.86	6	1	c1.jpg	2	1.274501	110
170.62	6	1	c10.jpg	3	2.312362	110
178.66	6	5	c9.jpg	4	3.28841	110
187.78	6	1	c19.jpg	NA	NA	110
199.45	6	1	c21.jpg	2	1.999388	110
210.77	6	5	c24.jpg	4	2.144921	110
222.81	6	5	c14.jpg	5	1.842715	110
232.31	6	5	c23.jpg	3	1.393333	110
3.03	6	1	p20.jpg	4	2.364429	111
13.27	6	1	p15.jpg	2	1.892716	111
21.32	6	5	p8.jpg	6	1.611031	111
32.27	6	1	p1.jpg	2	2.047441	111
41.76	6	5	p6.jpg	6	1.673889	111
53.07	6	5	p11.jpg	7	1.134841	111
62.21	6	1	p12.jpg	1	1.303287	111
70.98	6	1	p18.jpg	2	1.266396	111
80.11	6	1	p21.jpg	4	1.548996	111
92.15	6	5	p13.jpg	7	0.8176932	111
101.65	6	5	p3.jpg	7	1.70353	111
111.52	6	5	p10.jpg	7	1.115401	111
119.56	6	5	p7.jpg	6	1.530975	111
131.59	6	5	p9.jpg	5	1.481758	111
142.18	6	5	p2.jpg	7	0.9219134	111
152.4	6	1	p16.jpg	3	1.771648	111
160.79	6	5	p14.jpg	4	2.44189	111
169.2	6	5	p23.jpg	3	1.755209	111
177.97	6	1	p17.jpg	4	1.255922	111
188.56	6	5	p4.jpg	7	0.8589797	111
200.24	6	1	p19.jpg	5	1.931881	111
211.19	6	1	p24.jpg	3	1.336281	111
221.06	6	1	p5.jpg	3	1.326832	111
232.74	6	1	p22.jpg	4	1.191466	111
3.024	6	1	c20.jpg	1	1.082513	112
13.621	6	5	c6.jpg	6	1.945021	112
24.209	6	1	c22.jpg	1	1.423591	112
35.515	6	5	c8.jpg	5	3.03882	112
45.736	6	5	c13.jpg	3	1.64078	112
53.773	6	1	c9.jpg	1	1.510603	112
61.81	6	5	c18.jpg	6	1.975476	112
71.317	6	5	c1.jpg	5	3.682221	112
80.079	6	5	c11.jpg	6	1.349419	112
92.116	6	5	c16.jpg	4	2.084458	112
103.071	6	1	c3.jpg	1	1.553449	112
114.747	6	5	c19.jpg	6	2.111016	112
123.144	6	5	c17.jpg	4	1.929648	112
134.45	6	1	c23.jpg	1	1.319724	112
143.579	6	5	c21.jpg	5	3.086456	112
155.255	6	1	c7.jpg	1	1.285659	112
165.107	6	1	c14.jpg	1	1.427624	112
174.592	6	1	c5.jpg	1	0.7830362	112
186.624	6	5	c10.jpg	5	2.636662	112
195.771	6	5	c2.jpg	5	4.086952	112
205.631	6	1	c4.jpg	1	1.169291	112
215.85	6	1	c12.jpg	1	0.8434398	112
226.796	6	1	c24.jpg	1	1.423743	112
235.197	6	1	c15.jpg	1	0.8801786	112
3.03	6	5	c6.jpg	4	1.822651	113
11.81	6	1	c15.jpg	1	1.392747	113
20.94	6	1	c4.jpg	2	1.939673	113
31.89	6	1	c9.jpg	2	1.294703	113
42.47	6	1	c22.jpg	3	1.748089	113
50.87	6	1	c14.jpg	2	1.7233	113
58.9	6	1	c24.jpg	1	1.531589	113
68.75	6	1	c7.jpg	2	1.350053	113
80.06	6	5	c13.jpg	4	1.526155	113
90.28	6	5	c18.jpg	3	1.757879	113
102.32	6	1	c12.jpg	1	1.967084	113
114	6	1	c3.jpg	4	1.486119	113
122.77	6	5	c8.jpg	3	1.429812	113
133.71	6	5	c17.jpg	3	2.346416	113
142.11	6	1	c5.jpg	2	1.532813	113
152.33	6	5	c19.jpg	4	1.485115	113
161.83	6	5	c10.jpg	4	1.43941	113
170.95	6	5	c21.jpg	4	1.366838	113
179	6	5	c1.jpg	3	1.690195	113
190.68	6	5	c16.jpg	3	1.50514	113
202	6	5	c11.jpg	4	1.212688	113
212.6	6	5	c2.jpg	5	1.461109	113
222.45	6	1	c23.jpg	1	1.408681	113
231.94	6	1	c20.jpg	2	1.407235	113
3.03	6	5	p14.jpg	5	1.544052	114
11.1	6	1	p18.jpg	2	2.143205	114
20.6	6	1	p16.jpg	2	1.478751	114
29.73	6	5	p3.jpg	6	1.387207	114
38.13	6	5	p2.jpg	6	1.423981	114
49.45	6	5	p8.jpg	7	1.723207	114
60.4	6	1	p1.jpg	3	1.708922	114
68.43	6	1	p19.jpg	5	1.189421	114
78.66	6	5	p23.jpg	6	1.3469	114
89.24	6	1	p17.jpg	4	1.501378	114
99.1	6	5	p4.jpg	5	1.662588	114
108.59	6	1	p12.jpg	2	1.625025	114
119.89	6	1	p21.jpg	3	1.517779	114
128.66	6	1	p22.jpg	3	1.647648	114
140.7	6	1	p20.jpg	4	1.684869	114
152.37	6	5	p9.jpg	5	1.458987	114
162.59	6	5	p7.jpg	5	1.255238	114
174.63	6	5	p11.jpg	5	1.965267	114
184.48	6	1	p15.jpg	3	1.805101	114
195.43	6	1	p5.jpg	1	1.329394	114
206.02	6	5	p13.jpg	5	1.434833	114
217.7	6	5	p6.jpg	6	1.205976	114
226.83	6	5	p10.jpg	6	1.297133	114
235.6	6	1	p24.jpg	3	2.019415	114
3.034	6	1	p17.jpg	1	1.46981	115
12.178	6	5	p9.jpg	6	2.589189	115
22.035	6	1	p18.jpg	1	1.193156	115
30.445	6	1	p24.jpg	1	1.041149	115
39.211	6	5	p2.jpg	4	0.7350361	115
48.715	6	5	p8.jpg	7	1.234426	115
58.942	6	1	p12.jpg	1	0.9499516	115
68.801	6	1	p22.jpg	1	1.971755	115
76.834	6	5	p10.jpg	5	2.229767	115
87.429	6	1	p20.jpg	1	1.15038	115
98.379	6	1	p1.jpg	1	1.605511	115
110.063	6	1	p16.jpg	1	0.9480889	115
120.289	6	1	p19.jpg	1	1.128064	115
132.338	6	5	p11.jpg	5	4.437219	115
141.462	6	5	p23.jpg	4	2.709806	115
150.23	6	1	p21.jpg	1	1.008273	115
159.731	6	1	p5.jpg	1	0.8933406	115
170.316	6	5	p7.jpg	5	2.48549	115
181.997	6	5	p13.jpg	5	1.383834	115
190.4	6	5	p6.jpg	6	2.555539	115
201.712	6	5	p3.jpg	6	1.564447	115
213.757	6	5	p14.jpg	5	3.444153	115
221.794	6	5	p4.jpg	6	0.9692852	115
232.742	6	1	p15.jpg	1	1.328702	115
3.03	6	1	c7.jpg	2	2.485403	116
12.532	6	5	c8.jpg	3	2.437348	116
22.39	6	5	c11.jpg	3	2.996559	116
33.701	6	1	c14.jpg	1	1.701923	116
43.558	6	1	c24.jpg	1	1.258754	116
52.327	6	1	c20.jpg	1	1.40972	116
64.363	6	1	c23.jpg	1	1.733822	116
73.49	6	5	c13.jpg	4	2.715716	116
82.979	6	1	c4.jpg	2	1.785041	116
93.214	6	5	c2.jpg	3	2.556425	116
103.795	6	5	c16.jpg	3	2.40336	116
111.826	6	1	c9.jpg	1	3.826401	116
122.765	6	5	c6.jpg	4	2.899356	116
131.888	6	1	c5.jpg	1	1.878969	116
143.56	6	1	c15.jpg	1	2.213713	116
151.96	6	5	c10.jpg	3	1.817416	116
160.36	6	1	c12.jpg	1	1.584919	116
170.957	6	1	c3.jpg	2	4.013225	116
179	6	5	c1.jpg	2	2.400857	116
189.954	6	5	c17.jpg	3	2.018192	116
200.177	6	5	c21.jpg	3	2.956411	116
212.214	6	1	c22.jpg	2	1.721242	116
223.523	6	5	c19.jpg	2	2.551761	116
232.282	6	5	c18.jpg	4	3.063163	116
3	6	5	p8.jpg	6	1.465861	118
15.1	6	1	p16.jpg	1	1.346917	118
24.2	6	5	p14.jpg	5	1.962304	118
35.9	6	5	p10.jpg	5	2.092275	118
47.2	6	1	p21.jpg	5	1.42688	118
58.5	6	1	p12.jpg	1	1.4947	118
68.7	6	1	p15.jpg	2	1.358518	118
77.5	6	5	p3.jpg	7	1.297585	118
86.6	6	5	p11.jpg	6	1.519028	118
95.4	6	1	p1.jpg	1	1.947122	118
106.4	6	5	p6.jpg	7	1.310493	118
116.9	6	5	p9.jpg	7	1.718034	118
127.2	6	5	p13.jpg	5	1.959351	118
135.2	6	1	p22.jpg	2	2.167028	118
147.2	6	1	p19.jpg	2	2.480311	118
157.8	6	1	p24.jpg	2	1.920083	118
166.2	6	5	p2.jpg	6	1.625082	118
177.2	6	1	p18.jpg	2	1.347176	118
185.2	6	1	p17.jpg	3	1.591436	118
195.1	6	5	p7.jpg	6	1.816196	118
205	6	1	p20.jpg	3	2.33184	118
216.6	6	1	p5.jpg	1	1.71339	118
226.1	6	5	p23.jpg	1	1.844302	118
234.5	6	5	p4.jpg	7	1.185	118
3.02	6	5	c22.jpg	5	1.778602	120
13.27	6	1	c10.jpg	3	1.656417	120
22.03	6	5	c7.jpg	5	1.610001	120
30.45	6	1	c21.jpg	2	1.472749	120
42.48	6	1	c17.jpg	1	1.754585	120
52.71	6	1	c1.jpg	2	1.607321	120
62.19	6	5	c20.jpg	6	2.136617	120
71.69	6	5	c4.jpg	5	2.10562	120
82.29	6	1	c6.jpg	2	1.642408	120
90.69	6	1	c19.jpg	2	2.63929	120
101.63	6	5	c23.jpg	6	2.452616	120
112.57	6	5	c14.jpg	6	2.713528	120
122.42	6	5	c5.jpg	5	1.723148	120
133.74	6	5	c9.jpg	5	2.124038	120
145.42	6	5	c3.jpg	5	2.099556	120
154.55	6	1	c8.jpg	2	2.057542	120
165.12	6	5	c12.jpg	3	1.540628	120
173.15	6	1	c11.jpg	2	2.563547	120
184.83	6	5	c15.jpg	4	1.81771	120
193.59	6	1	c18.jpg	2	3.987765	120
201.63	6	5	c24.jpg	4	2.87061	120
213.67	6	1	c16.jpg	1	2.256683	120
223.54	6	1	c2.jpg	1	1.846658	120
232.66	6	1	c13.jpg	2	3.192873	120
3	6	1	p12.jpg	4	2.920787	121
11.1	6	1	p5.jpg	3	3.110868	121
22	6	1	p15.jpg	2	4.282867	121
31.5	6	1	p18.jpg	2	1.545858	121
43.2	6	1	p22.jpg	1	2.61922	121
55.3	6	1	p17.jpg	2	2.875558	121
65.1	6	5	p6.jpg	3	4.744656	121
74.2	6	1	p24.jpg	2	4.139203	121
85.5	6	1	p1.jpg	2	2.207118	121
94.3	6	5	p7.jpg	6	3.134559	121
105.3	6	5	p13.jpg	6	2.277803	121
115.1	6	1	p19.jpg	6	3.444119	121
125.3	6	5	p3.jpg	7	1.681902	121
135.9	6	1	p21.jpg	4	3.609526	121
144.3	6	1	p20.jpg	2	2.13213	121
153.5	6	5	p14.jpg	3	4.503516	121
164.8	6	5	p10.jpg	3	2.965174	121
176.8	6	5	p4.jpg	6	2.672908	121
186.3	6	5	p23.jpg	3	3.778994	121
198	6	5	p9.jpg	4	2.045325	121
208.2	6	5	p2.jpg	6	4.272055	121
216.6	6	1	p16.jpg	1	3.125882	121
227.2	6	5	p8.jpg	2	2.580435	121
235.2	6	5	p11.jpg	3	3.193928	121
0	6	5	p11.jpg	7	2.55	122
0	6	5	p8.jpg	5	1.73	122
0	6	5	p13.jpg	7	1.89	122
0	6	5	p14.jpg	4	1.11	122
0	6	5	p23.jpg	5	1.3	122
0	6	1	p20.jpg	1	1.37	122
0	6	1	p19.jpg	1	0.743	122
0	6	1	p5.jpg	1	1.51	122
0	6	1	p18.jpg	2	1.05	122
0	6	5	p2.jpg	5	1.75	122
0	6	5	p9.jpg	6	1.79	122
0	6	1	p24.jpg	2	1.33	122
0	6	1	p17.jpg	5	1.63	122
0	6	5	p4.jpg	6	2.88	122
0	6	5	p3.jpg	4	2.31	122
0	6	1	p12.jpg	1	2.02	122
0	6	1	p1.jpg	2	1.42	122
0	6	5	p6.jpg	3	2.31	122
0	6	1	p21.jpg	5	1.11	122
0	6	1	p15.jpg	1	2.72	122
0	6	1	p16.jpg	1	0.939	122
0	6	5	p7.jpg	5	3.2	122
0	6	5	p10.jpg	4	1.91	122
0	6	1	p22.jpg	3	2.75	122
3	6	1	c10.jpg	6	2.033863	123
11.1	6	5	c20.jpg	5	1.592014	123
20.2	6	1	c18.jpg	3	2.275385	123
32.3	6	5	c4.jpg	7	2.018834	123
41	6	1	c16.jpg	4	2.613562	123
51.6	6	5	c24.jpg	5	1.961159	123
62.2	6	5	c3.jpg	5	1.986353	123
72	6	1	c21.jpg	5	2.977233	123
81.5	6	5	c22.jpg	4	1.662888	123
91	6	1	c13.jpg	3	2.78331	123
99.4	6	5	c7.jpg	6	2.471959	123
111.4	6	5	c15.jpg	5	2.387672	123
123.1	6	1	c17.jpg	2	4.210198	123
134	6	5	c12.jpg	7	4.105515	123
145	6	1	c1.jpg	5	3.649099	123
153.7	6	5	c5.jpg	4	3.849945	123
162.1	6	5	c9.jpg	NA	NA	123
172.4	6	1	c8.jpg	6	0.9715195	123
181.5	6	1	c6.jpg	NA	NA	123
191.7	6	5	c14.jpg	5	1.398876	123
199.7	6	5	c23.jpg	6	0.6892326	123
211	6	1	c2.jpg	5	1.567773	123
222.4	6	1	c11.jpg	4	1.818542	123
234	6	1	c19.jpg	3	2.211442	123
3	6	5	c8.jpg	4	2.280911	124
11.5	6	5	c2.jpg	2	1.690778	124
23.1	6	5	c11.jpg	5	2.228781	124
34.5	6	1	c4.jpg	3	1.9446	124
44.3	6	1	c20.jpg	2	1.976585	124
54.9	6	5	c17.jpg	6	2.071002	124
65.1	6	1	c15.jpg	2	2.107887	124
75.3	6	1	c3.jpg	4	2.33418	124
84.1	6	5	c19.jpg	4	1.073374	124
92.8	6	1	c23.jpg	2	3.118237	124
100.9	6	5	c21.jpg	6	1.795088	124
110.7	6	1	c12.jpg	3	1.553662	124
122	6	1	c5.jpg	2	2.248273	124
130.4	6	5	c1.jpg	4	2.446725	124
141.4	6	1	c14.jpg	3	1.367206	124
153	6	1	c7.jpg	1	1.740553	124
164	6	1	c22.jpg	3	2.710942	124
176	6	5	c6.jpg	4	2.147263	124
186.6	6	1	c9.jpg	3	1.486354	124
195.7	6	5	c10.jpg	5	1.777224	124
203.8	6	5	c13.jpg	5	1.511375	124
213.2	6	1	c24.jpg	2	1.790689	124
222.7	6	5	c16.jpg	5	1.406344	124
231.9	6	5	c18.jpg	4	1.598436	124
3.04	6	5	p8.jpg	4	2.29571	125
12.18	6	1	p24.jpg	1	2.093597	125
23.86	6	5	p3.jpg	6	1.405558	125
32.64	6	5	p10.jpg	3	3.227605	125
41.04	6	5	p11.jpg	6	1.883931	125
53.08	6	1	p1.jpg	2	3.605767	125
65.13	6	1	p16.jpg	1	2.005033	125
74.25	6	1	p22.jpg	1	2.116975	125
82.65	6	1	p15.jpg	2	2.669444	125
92.51	6	1	p5.jpg	1	1.247462	125
102.01	6	5	p13.jpg	3	2.139192	125
110.05	6	5	p2.jpg	4	2.195322	125
120.64	6	1	p20.jpg	2	2.545848	125
129.41	6	5	p7.jpg	7	2.12957	125
140.72	6	5	p6.jpg	3	4.797847	125
150.94	6	1	p17.jpg	3	4.232006	125
161.9	6	1	p18.jpg	1	4.152555	125
169.94	6	5	p14.jpg	4	2.519953	125
181.62	6	5	p4.jpg	6	2.626685	125
192.56	6	5	p23.jpg	5	3.190639	125
202.05	6	1	p12.jpg	1	2.567603	125
213.36	6	1	p21.jpg	2	2.681783	125
223.59	6	1	p19.jpg	5	3.460332	125
234.17	6	5	p9.jpg	5	4.01678	125
3	6	5	c6.jpg	4	1.665637	126
12.5	6	5	c2.jpg	5	1.636089	126
20.9	6	1	c9.jpg	1	1.455468	126
30.8	6	5	c16.jpg	5	1.568117	126
39.9	6	5	c19.jpg	4	2.64534	126
50.9	6	1	c22.jpg	1	2.517868	126
59.6	6	1	c3.jpg	1	2.139948	126
71.7	6	1	c23.jpg	1	1.925128	126
81.9	6	5	c10.jpg	4	2.014311	126
92.1	6	5	c21.jpg	4	2.041668	126
103.4	6	1	c15.jpg	1	1.377949	126
112.9	6	5	c1.jpg	4	1.085372	126
121.7	6	1	c5.jpg	1	1.414036	126
129.7	6	1	c14.jpg	1	1.21406	126
138.8	6	1	c12.jpg	1	1.750273	126
149.4	6	5	c8.jpg	5	1.516592	126
161.1	6	1	c7.jpg	1	1.205537	126
172.8	6	1	c4.jpg	1	1.327609	126
184.1	6	5	c17.jpg	4	2.014956	126
196.1	6	1	c20.jpg	1	0.9794884	126
204.5	6	5	c11.jpg	4	1.312029	126
214.4	6	5	c13.jpg	4	1.191261	126
222.4	6	5	c18.jpg	4	1.028996	126
233	6	1	c24.jpg	1	1.662268	126
3.03	6	5	p22.jpg	6	1.275995	127
11.46	6	1	p3.jpg	1	1.27679	127
22.04	6	1	p9.jpg	2	1.714044	127
33.35	6	5	p18.jpg	6	1.282664	127
43.58	6	5	p17.jpg	5	1.917454	127
53.07	6	1	p4.jpg	2	2.20755	127
64.01	6	5	p1.jpg	5	2.002819	127
74.96	6	1	p23.jpg	1	1.576841	127
84.09	6	5	p12.jpg	5	1.969339	127
92.86	6	1	p11.jpg	1	1.833871	127
101.27	6	5	p20.jpg	2	1.951505	127
112.94	6	1	p8.jpg	5	1.814712	127
121.71	6	1	p7.jpg	1	1.701595	127
129.74	6	5	p24.jpg	1	1.573513	127
141.06	6	5	p16.jpg	6	1.713808	127
151.64	6	5	p15.jpg	2	1.764817	127
159.69	6	1	p2.jpg	2	1.590662	127
169.56	6	5	p19.jpg	3	1.687286	127
178.69	6	1	p10.jpg	1	1.622281	127
188.18	6	5	p21.jpg	5	1.921726	127
198.04	6	1	p14.jpg	1	1.435402	127
210.08	6	1	p6.jpg	3	2.679285	127
220.3	6	5	p5.jpg	4	1.6189	127
232.34	6	1	p13.jpg	2	2.46883	127
3.1	6	1	c17.jpg	5	1.670456	128
13.7	6	1	c18.jpg	4	1.634911	128
23.5	6	5	c20.jpg	6	1.594452	128
32.7	6	5	c22.jpg	4	2.294183	128
41.4	6	1	c19.jpg	4	2.431842	128
53.1	6	1	c6.jpg	5	1.65069	128
62.2	6	1	c11.jpg	3	3.144547	128
73.2	6	5	c23.jpg	6	1.883945	128
84.8	6	5	c4.jpg	2	3.880004	128
96.1	6	5	c9.jpg	NA	NA	128
106	6	5	c15.jpg	4	2.023256	128
115.5	6	1	c13.jpg	6	2.084374	128
125.7	6	1	c10.jpg	5	2.550034	128
137	6	1	c8.jpg	1	1.578625	128
145.4	6	1	c1.jpg	1	5.305786	128
154.2	6	5	c3.jpg	5	2.218732	128
166.2	6	5	c12.jpg	3	2.358894	128
176.4	6	5	c24.jpg	4	1.464284	128
187.4	6	1	c21.jpg	2	2.256091	128
199.4	6	5	c14.jpg	5	1.603987	128
210	6	5	c5.jpg	NA	NA	128
218	6	1	c16.jpg	5	2.190177	128
227.5	6	5	c7.jpg	5	1.770424	128
235.9	6	1	c2.jpg	5	1.047219	128
3.026	6	1	c6.jpg	NA	NA	131
12.167	6	5	c12.jpg	3	3.950038	131
22.021	6	1	c13.jpg	2	4.240684	131
33.337	6	1	c11.jpg	6	2.931993	131
45.006	6	5	c7.jpg	5	2.132399	131
55.221	6	5	c15.jpg	3	3.356534	131
66.524	6	5	c20.jpg	4	2.569039	131
78.194	6	5	c4.jpg	3	3.587861	131
90.226	6	1	c10.jpg	3	2.750604	131
101.171	6	5	c24.jpg	4	2.617921	131
109.942	6	1	c1.jpg	3	3.355463	131
119.437	6	5	c23.jpg	4	3.445794	131
128.57	6	1	c17.jpg	2	2.653687	131
137.335	6	5	c5.jpg	5	4.08394	131
147.915	6	1	c19.jpg	2	3.999773	131
155.957	6	1	c8.jpg	1	5.268805	131
164.351	6	5	c9.jpg	7	3.753231	131
173.841	6	1	c18.jpg	4	4.902268	131
185.898	6	1	c2.jpg	1	3.406709	131
196.487	6	1	c21.jpg	1	1.872735	131
206.717	6	5	c3.jpg	7	4.45855	131
217.666	6	1	c16.jpg	5	3.787682	131
227.526	6	5	c22.jpg	6	5.19442	131
235.928	6	5	c14.jpg	7	1.439364	131
3.1	6	1	p23.jpg	4	2.86163	132
12.9	6	5	p22.jpg	6	2.042454	132
24.6	6	1	p4.jpg	2	1.887738	132
33.4	6	5	p15.jpg	5	3.180578	132
43.6	6	5	p18.jpg	7	1.707729	132
52	6	5	p1.jpg	6	1.886225	132
63	6	5	p16.jpg	6	2.336181	132
71	6	1	p3.jpg	1	4.991723	132
79	6	5	p12.jpg	5	1.980855	132
91.1	6	5	p17.jpg	5	2.352349	132
102.4	6	1	p2.jpg	2	2.751903	132
114.4	6	1	p7.jpg	2	1.850097	132
126.1	6	1	p13.jpg	3	1.800514	132
134.5	6	5	p21.jpg	6	1.660257	132
144.4	6	1	p6.jpg	2	3.049351	132
154.6	6	1	p14.jpg	2	1.52053	132
163.7	6	5	p19.jpg	6	1.873616	132
174.3	6	1	p9.jpg	2	1.542491	132
183.8	6	1	p10.jpg	3	1.944085	132
195.1	6	1	p11.jpg	2	2.015455	132
206.1	6	5	p24.jpg	5	2.48756	132
214.9	6	1	p8.jpg	3	2.186564	132
225.4	6	5	p5.jpg	4	1.673155	132
235	6	5	p20.jpg	3	2.827685	132
3.026	6	5	p21.jpg	3	2.441813	134
11.807	6	5	p18.jpg	4	2.946313	134
20.215	6	5	p15.jpg	5	3.919926	134
29.349	6	5	p16.jpg	2	1.819112	134
40.664	6	5	p22.jpg	2	6.41E-04	134
50.16	6	5	p5.jpg	5	0.06809854	134
58.195	6	1	p10.jpg	5	1.051937	134
69.868	6	5	p19.jpg	6	2.577066	134
80.453	6	5	p12.jpg	7	2.210781	134
90.31	6	5	p20.jpg	5	7.37E-04	134
102.345	6	1	p3.jpg	6	1.437664	134
112.566	6	1	p8.jpg	2	3.096166	134
121.331	6	1	p14.jpg	2	2.836302	134
129.743	6	1	p2.jpg	5	1.890192	134
139.236	6	1	p11.jpg	3	0.5177224	134
148.364	6	1	p4.jpg	4	3.775738	134
158.947	6	5	p1.jpg	6	4.38281	134
169.898	6	1	p6.jpg	2	3.593123	134
177.94	6	1	p23.jpg	2	3.287138	134
188.888	6	5	p24.jpg	6	4.12E-04	134
199.115	6	1	p13.jpg	6	1.191192	134
208.968	6	1	p9.jpg	2	1.046731	134
220.284	6	1	p7.jpg	4	5.831786	134
232.326	6	5	p17.jpg	4	1.195325	134
3.1	6	1	p19.jpg	4	1.566529	135
12.9	6	5	p3.jpg	3	2.054372	135
21.7	6	5	p2.jpg	7	2.674247	135
29.7	6	5	p4.jpg	5	1.722186	135
41.1	6	5	p13.jpg	5	2.086642	135
52	6	5	p7.jpg	3	1.672913	135
62.6	6	1	p1.jpg	5	2.677144	135
74.3	6	5	p11.jpg	6	1.915248	135
86	6	1	p12.jpg	4	2.007707	135
98	6	5	p8.jpg	4	2.606509	135
106.4	6	5	p23.jpg	6	2.048314	135
115.9	6	1	p15.jpg	4	1.289339	135
124.3	6	5	p9.jpg	5	1.405885	135
134.2	6	1	p21.jpg	4	1.414543	135
143.6	6	1	p24.jpg	5	1.622363	135
154.2	6	1	p22.jpg	5	1.191352	135
165.5	6	1	p16.jpg	3	1.770674	135
174.3	6	5	p14.jpg	4	1.929799	135
183.4	6	5	p10.jpg	5	4.70468	135
195.5	6	5	p6.jpg	3	2.743393	135
205.7	6	1	p18.jpg	5	1.231772	135
215.9	6	1	p20.jpg	5	1.134876	135
226.9	6	1	p17.jpg	3	1.629932	135
234.9	6	1	p5.jpg	2	1.945357	135
3.031	6	1	c24.jpg	1	1.053879	136
12.896	6	5	c11.jpg	4	2.336814	136
22.021	6	1	c23.jpg	1	1.386106	136
30.054	6	5	c6.jpg	4	2.130892	136
42.111	6	1	c20.jpg	2	2.588887	136
52.687	6	5	c18.jpg	6	1.633448	136
61.45	6	5	c17.jpg	7	1.665732	136
71.301	6	5	c10.jpg	3	2.034424	136
80.808	6	1	c3.jpg	1	1.51542	136
89.566	6	1	c12.jpg	1	1.704368	136
101.615	6	5	c2.jpg	3	2.127487	136
111.833	6	1	c22.jpg	1	1.274703	136
121.324	6	5	c19.jpg	3	2.24618	136
132.265	6	5	c16.jpg	4	1.566741	136
140.664	6	5	c21.jpg	5	1.377979	136
151.987	6	5	c1.jpg	2	1.591753	136
160.027	6	1	c9.jpg	1	1.522335	136
171.699	6	1	c14.jpg	2	1.50206	136
180.095	6	1	c15.jpg	1	1.899937	136
190.31	6	1	c7.jpg	2	1.25739	136
201.252	6	1	c5.jpg	1	1.209718	136
210.374	6	5	c13.jpg	5	1.648893	136
220.957	6	1	c4.jpg	4	2.035535	136
232.265	6	5	c8.jpg	5	1.728479	136
3.02	6	5	c23.jpg	2	2.319009	142
13.27	6	1	c1.jpg	6	1.483887	142
25.31	6	5	c22.jpg	5	2.467016	142
34.09	6	1	c2.jpg	1	1.443249	142
45.77	6	5	c14.jpg	6	1.678025	142
54.89	6	1	c18.jpg	2	1.595252	142
64.74	6	1	c8.jpg	2	2.666539	142
75.32	6	1	c19.jpg	5	3.34948	142
84.08	6	5	c4.jpg	3	2.007801	142
96.12	6	1	c11.jpg	4	1.3056	142
105.61	6	1	c16.jpg	2	2.80519	142
115.83	6	5	c5.jpg	2	1.842806	142
126.77	6	1	c10.jpg	2	1.941794	142
137.71	6	5	c20.jpg	5	1.214486	142
148.32	6	5	c3.jpg	6	2.16143	142
158.17	6	1	c6.jpg	2	2.299004	142
167.29	6	5	c7.jpg	3	2.87867	142
176.78	6	5	c24.jpg	4	2.725674	142
184.81	6	5	c9.jpg	7	2.100826	142
196.11	6	5	c12.jpg	7	1.715447	142
207.78	6	5	c15.jpg	6	1.997124	142
216.19	6	1	c21.jpg	1	1.76135	142
227.5	6	1	c13.jpg	1	2.505418	142
235.9	6	1	c17.jpg	3	2.001494	142
3	6	5	p20.jpg	2	1.889863	143
13.6	6	1	p14.jpg	2	1.934521	143
24.9	6	1	p7.jpg	2	2.6962	143
34.1	6	1	p13.jpg	2	3.249942	143
44.6	6	1	p3.jpg	4	2.354786	143
56.7	6	5	p12.jpg	5	2.085242	143
65.5	6	1	p11.jpg	3	2.447556	143
73.5	6	1	p8.jpg	2	2.78141	143
83	6	1	p2.jpg	1	2.438148	143
94.7	6	5	p21.jpg	3	2.586564	143
104.9	6	5	p5.jpg	4	2.070772	143
113.3	6	1	p6.jpg	2	2.517536	143
121.7	6	5	p17.jpg	5	2.962558	143
133.8	6	1	p9.jpg	3	1.605124	143
143.6	6	5	p22.jpg	5	3.576941	143
152.7	6	5	p16.jpg	3	2.071645	143
160.8	6	1	p23.jpg	3	2.696121	143
171	6	5	p1.jpg	6	2.734519	143
182.7	6	5	p18.jpg	4	3.10807	143
194	6	1	p10.jpg	1	3.600125	143
202.8	6	5	p19.jpg	6	2.141722	143
212.3	6	5	p15.jpg	5	1.873054	143
223.2	6	1	p4.jpg	3	1.804576	143
234.2	6	5	p24.jpg	5	1.26239	143
3	6	5	c18.jpg	5	4.09277	144
13.3	6	1	c4.jpg	2	2.531977	144
22.4	6	1	c14.jpg	3	1.657476	144
30.8	6	5	c6.jpg	3	2.127067	144
39.5	6	1	c22.jpg	3	3.109834	144
50.5	6	5	c10.jpg	3	1.862291	144
62.5	6	1	c15.jpg	5	4.546917	144
70.6	6	5	c1.jpg	6	2.729955	144
82.2	6	1	c20.jpg	2	2.909583	144
93.6	6	1	c3.jpg	2	5.148321	144
105.6	6	1	c23.jpg	2	2.652755	144
115.4	6	1	c9.jpg	4	2.461055	144
126	6	5	c13.jpg	NA	NA	144
136.6	6	5	c8.jpg	5	3.753842	144
144.6	6	1	c24.jpg	2	3.618506	144
156.3	6	5	c17.jpg	4	3.702796	144
165.4	6	5	c19.jpg	5	4.227862	144
176.4	6	5	c21.jpg	6	3.80256	144
185.9	6	1	c12.jpg	2	2.725258	144
194.6	6	5	c16.jpg	5	5.017746	144
203	6	5	c11.jpg	4	2.022126	144
212.9	6	5	c2.jpg	4	3.517464	144
224.2	6	1	c7.jpg	4	4.566106	144
234.4	6	1	c5.jpg	2	4.424471	144
3.03	6	5	p17.jpg	6	3.173312	146
11.81	6	5	p18.jpg	5	2.845962	146
22.41	6	1	p9.jpg	5	1.948529	146
30.45	6	5	p16.jpg	5	1.710015	146
41.39	6	1	p11.jpg	3	3.705149	146
52.35	6	1	p13.jpg	3	4.951056	146
64.01	6	5	p15.jpg	5	2.496082	146
73.14	6	1	p4.jpg	2	2.60666	146
83.37	6	5	p12.jpg	5	3.164233	146
91.41	6	1	p14.jpg	1	2.88248	146
100.17	6	5	p19.jpg	4	4.577525	146
111.86	6	5	p5.jpg	4	2.724217	146
123.89	6	1	p8.jpg	5	1.528628	146
133.75	6	5	p24.jpg	4	4.544577	146
143.25	6	5	p22.jpg	3	1.704869	146
153.12	6	1	p7.jpg	2	2.504064	146
161.52	6	1	p6.jpg	5	2.300223	146
172.1	6	1	p3.jpg	1	2.954461	146
181.59	6	1	p10.jpg	3	1.639901	146
190.72	6	1	p2.jpg	1	1.59707	146
202.04	6	5	p1.jpg	7	2.679178	146
212.28	6	5	p20.jpg	4	1.637799	146
223.58	6	5	p21.jpg	5	0.8359432	146
231.99	6	1	p23.jpg	2	2.810228	146
3.1	6	1	p17.jpg	2	3.046343	147
11.5	6	1	p18.jpg	4	3.612441	147
20.6	6	5	p4.jpg	4	1.949587	147
28.6	6	5	p2.jpg	5	4.395194	147
37.1	6	1	p5.jpg	3	4.304398	147
45.8	6	5	p14.jpg	4	1.743295	147
56.4	6	1	p21.jpg	3	3.767314	147
66.3	6	5	p11.jpg	2	3.369361	147
75	6	5	p6.jpg	4	2.745111	147
84.2	6	5	p10.jpg	NA	NA	147
94.4	6	5	p7.jpg	4	2.248283	147
105.3	6	1	p12.jpg	3	3.34951	147
115.6	6	5	p8.jpg	4	3.891856	147
127.6	6	5	p3.jpg	5	1.794007	147
137.1	6	1	p1.jpg	NA	NA	147
147.7	6	1	p16.jpg	3	3.346175	147
159.4	6	1	p20.jpg	1	4.956886	147
168.9	6	1	p15.jpg	2	4.165063	147
176.9	6	1	p19.jpg	3	4.105191	147
188.9	6	5	p13.jpg	5	2.03797	147
200.3	6	5	p9.jpg	4	3.471255	147
210.1	6	1	p22.jpg	2	3.020671	147
221.4	6	5	p23.jpg	5	3.995486	147
233.1	6	1	p24.jpg	3	4.820536	147
3.026	6	5	c11.jpg	2	2.164488	149
11.082	6	5	c1.jpg	2	2.476356	149
20.574	6	5	c10.jpg	3	2.378571	149
31.884	6	1	c24.jpg	1	2.826887	149
39.923	6	1	c20.jpg	2	6.70E-04	149
50.5	6	5	c13.jpg	2	2.357199	149
59.626	6	1	c15.jpg	1	2.024963	149
69.846	6	5	c19.jpg	1	2.824538	149
81.519	6	5	c6.jpg	2	3.911592	149
93.552	6	1	c5.jpg	2	3.669012	149
102.32	6	5	c21.jpg	2	1.939347	149
113.266	6	1	c14.jpg	2	2.859791	149
122.393	6	1	c7.jpg	1	2.34314	149
130.792	6	1	c4.jpg	1	2.051011	149
140.286	6	5	c17.jpg	3	3.373665	149
149.048	6	1	c23.jpg	1	2.358905	149
159.993	6	1	c9.jpg	1	2.921574	149
172.028	6	5	c8.jpg	2	2.427786	149
180.424	6	5	c18.jpg	2	2.291458	149
191.005	6	1	c12.jpg	1	2.711253	149
202.675	6	1	c22.jpg	1	2.049386	149
214.004	6	5	c16.jpg	1	2.093094	149
223.878	6	5	c2.jpg	3	3.14982	149
234.103	6	1	c3.jpg	1	4.397384	149
3.1	6	5	p10.jpg	4	1.50654	151
15.1	6	5	p14.jpg	3	3.463559	151
23.9	6	5	p11.jpg	4	2.286671	151
35.6	6	1	p20.jpg	1	2.361364	151
47.3	6	1	p21.jpg	2	1.638475	151
56	6	1	p19.jpg	1	1.714225	151
65.9	6	1	p17.jpg	1	2.004035	151
74.3	6	5	p23.jpg	5	1.79377	151
85.6	6	1	p12.jpg	2	1.362157	151
93.6	6	5	p4.jpg	5	2.707517	151
104.2	6	5	p6.jpg	5	1.9116	151
113.7	6	1	p16.jpg	2	1.55273	151
122.8	6	5	p13.jpg	3	2.495949	151
133.8	6	1	p22.jpg	1	2.547949	151
143.3	6	1	p15.jpg	1	1.175016	151
154.2	6	5	p9.jpg	6	2.400336	151
163.4	6	1	p24.jpg	3	1.628231	151
173.6	6	5	p2.jpg	5	1.723506	151
181.6	6	5	p3.jpg	4	1.188506	151
191.9	6	5	p8.jpg	3	1.463778	151
200.3	6	1	p5.jpg	2	1.655288	151
211.6	6	5	p7.jpg	6	1.457965	151
221.4	6	1	p18.jpg	2	1.299344	151
233.5	6	1	p1.jpg	2	1.272218	151
3.03	6	1	c10.jpg	3	1.727613	152
11.82	6	1	c2.jpg	6	1.202992	152
22.4	6	1	c13.jpg	4	1.267593	152
32.26	6	5	c22.jpg	5	1.191439	152
43.58	6	1	c1.jpg	6	1.708783	152
54.89	6	5	c15.jpg	5	0.9280647	152
63.28	6	5	c14.jpg	6	2.384975	152
73.85	6	5	c7.jpg	5	0.911497	152
82.98	6	1	c11.jpg	5	0.8594535	152
93.2	6	5	c20.jpg	4	1.067931	152
104.14	6	1	c8.jpg	5	1.093317	152
115.09	6	1	c18.jpg	3	2.162427	152
124.22	6	5	c12.jpg	5	1.202378	152
133.71	6	5	c4.jpg	4	1.162884	152
141.74	6	5	c24.jpg	6	1.106305	152
153.78	6	1	c19.jpg	5	1.597101	152
165.82	6	1	c17.jpg	5	0.5944848	152
177.48	6	5	c23.jpg	4	0.9001474	152
186.24	6	5	c9.jpg	5	0.6499132	152
196.11	6	5	c3.jpg	5	2.512648	152
207.78	6	1	c6.jpg	5	1.161692	152
217.28	6	1	c21.jpg	3	3.692021	152
225.31	6	5	c5.jpg	6	1.892082	152
235.52	6	1	c16.jpg	3	1.702779	152
3.04	6	5	p15.jpg	7	3.060194	153
15.1	6	1	p3.jpg	1	3.901912	153
27.14	6	1	p4.jpg	1	3.153323	153
38.81	6	1	p14.jpg	3	3.064422	153
46.85	6	1	p7.jpg	6	4.127922	153
55.61	6	5	p24.jpg	6	4.245318	153
64.37	6	1	p8.jpg	1	0.836297	153
75.68	6	1	p9.jpg	1	1.269121	153
85.55	6	5	p12.jpg	6	1.799244	153
97.22	6	5	p19.jpg	6	1.423097	153
107.09	6	1	p10.jpg	6	1.095251	153
116.22	6	5	p5.jpg	6	1.314364	153
124.25	6	5	p16.jpg	5	0.9956028	153
135.57	6	5	p1.jpg	5	0.9191164	153
146.52	6	5	p20.jpg	6	1.819746	153
154.93	6	1	p11.jpg	1	4.714435	153
164.42	6	1	p2.jpg	NA	NA	153
172.83	6	1	p6.jpg	6	1.710075	153
183.41	6	5	p22.jpg	6	3.203178	153
192.55	6	5	p17.jpg	4	0.1028076	153
203.13	6	1	p23.jpg	3	3.564129	153
214.07	6	5	p21.jpg	5	3.443122	153
223.57	6	5	p18.jpg	6	1.671395	153
233.79	6	1	p13.jpg	5	1.610396	153
3.04	6	1	c3.jpg	4	0.5342786	154
12.91	6	5	c2.jpg	5	0.001287042	154
23.87	6	1	c12.jpg	4	7.19E-04	154
35.54	6	5	c16.jpg	4	5.18E-04	154
47.57	6	5	c17.jpg	2	9.86E-04	154
58.88	6	1	c14.jpg	4	5.44E-04	154
68.37	6	1	c9.jpg	5	5.64E-04	154
79.31	6	5	c10.jpg	1	7.81E-04	154
89.53	6	1	c7.jpg	5	5.03E-04	154
98.29	6	1	c23.jpg	2	7.63E-04	154
106.69	6	5	c8.jpg	5	5.38E-04	154
115.82	6	5	c13.jpg	7	8.01E-04	154
123.85	6	1	c4.jpg	1	5.17E-04	154
131.89	6	1	c5.jpg	5	4.69E-04	154
143.2	6	5	c1.jpg	7	4.74E-04	154
151.97	6	1	c22.jpg	3	8.25E-04	154
164.01	6	1	c15.jpg	6	0.05872828	154
174.22	6	5	c18.jpg	3	0.1109903	154
183.72	6	5	c6.jpg	7	4.40E-04	154
195.39	6	5	c11.jpg	6	4.46E-04	154
205.24	6	1	c20.jpg	2	0.03549467	154
214.37	6	5	c19.jpg	1	4.42E-04	154
224.94	6	1	c24.jpg	1	4.01E-04	154
235.53	6	5	c21.jpg	3	0.01727551	154
3.03	6	1	p1.jpg	2	3.195257	156
11.44	6	5	p4.jpg	5	2.66683	156
19.48	6	1	p22.jpg	1	2.159939	156
30.06	6	1	p24.jpg	1	2.23499	156
42.1	6	1	p5.jpg	1	3.060527	156
51.23	6	5	p23.jpg	6	1.714648	156
62.54	6	5	p9.jpg	5	2.382744	156
74.21	6	1	p18.jpg	4	3.108079	156
84.44	6	5	p8.jpg	5	2.093401	156
93.21	6	5	p2.jpg	5	1.453451	156
101.61	6	5	p11.jpg	5	1.520886	156
113.66	6	5	p7.jpg	5	1.988836	156
122.79	6	1	p15.jpg	1	1.804134	156
134.1	6	5	p13.jpg	4	3.065298	156
144.68	6	1	p20.jpg	1	2.284282	156
152.73	6	5	p6.jpg	5	1.819262	156
163.68	6	1	p16.jpg	1	1.822693	156
173.54	6	1	p17.jpg	1	2.316735	156
185.22	6	1	p19.jpg	3	3.452306	156
193.99	6	1	p21.jpg	3	3.040821	156
203.49	6	5	p14.jpg	5	1.602372	156
212.99	6	5	p10.jpg	5	2.995887	156
223.21	6	1	p12.jpg	2	3.297184	156
234.15	6	5	p3.jpg	5	1.863596	156
3.04	6	1	c1.jpg	3	3.084193	157
12.17	6	5	c24.jpg	6	1.271825	157
20.21	6	1	c10.jpg	4	1.955194	157
30.43	6	5	c22.jpg	7	0.9942682	157
41.74	6	5	c15.jpg	7	1.124995	157
52.68	6	1	c6.jpg	1	2.080582	157
61.08	6	5	c3.jpg	7	1.908952	157
72.75	6	1	c21.jpg	1	1.454668	157
81.51	6	5	c23.jpg	7	1.059677	157
89.9	6	1	c13.jpg	1	1.530821	157
100.48	6	5	c12.jpg	6	1.48674	157
109.96	6	5	c9.jpg	5	1.560156	157
119.09	6	1	c8.jpg	2	2.628485	157
130.76	6	5	c5.jpg	6	1.632498	157
140.98	6	5	c7.jpg	3	2.093943	157
151.56	6	5	c4.jpg	7	1.176706	157
161.4	6	1	c17.jpg	1	1.18299	157
172.72	6	5	c20.jpg	7	2.786275	157
181.49	6	1	c2.jpg	1	1.040405	157
193.52	6	1	c18.jpg	2	3.075777	157
204.47	6	5	c14.jpg	6	2.590867	157
216.49	6	1	c16.jpg	1	1.183584	157
225.98	6	1	c11.jpg	1	3.495114	157
234.02	6	1	c19.jpg	4	1.993513	157
3	6	5	p8.jpg	6	1.929674	158
11.1	6	1	p18.jpg	4	1.972631	158
19.8	6	5	p14.jpg	3	2.331112	158
30.1	6	1	p21.jpg	1	2.409624	158
39.9	6	5	p2.jpg	5	2.683087	158
48.3	6	1	p22.jpg	1	1.70047	158
58.6	6	5	p7.jpg	1	1.895478	158
69.5	6	5	p9.jpg	4	2.600683	158
79.4	6	1	p12.jpg	2	2.404696	158
88.8	6	1	p1.jpg	1	1.764287	158
97.3	6	5	p6.jpg	2	2.737256	158
108.9	6	5	p3.jpg	3	2.079628	158
121	6	1	p19.jpg	2	1.597309	158
130.1	6	5	p4.jpg	4	2.129147	158
139.2	6	1	p15.jpg	3	2.965976	158
149.8	6	1	p16.jpg	1	1.799079	158
157.9	6	5	p11.jpg	5	1.528821	158
166.6	6	5	p23.jpg	2	1.615396	158
176.1	6	5	p13.jpg	5	1.801859	158
186.7	6	1	p24.jpg	2	1.864442	158
198.8	6	5	p10.jpg	4	1.878767	158
210.1	6	1	p5.jpg	1	3.036014	158
221.4	6	1	p20.jpg	2	4.094445	158
232.3	6	1	p17.jpg	1	2.123889	158
3.05	6	1	p19.jpg	1	3.16912	161
15.1	6	1	p15.jpg	1	1.831999	161
23.14	6	1	p24.jpg	1	1.506161	161
31.9	6	1	p18.jpg	2	2.281357	161
41.75	6	5	p10.jpg	4	2.337657	161
50.88	6	5	p23.jpg	6	2.619628	161
60.74	6	5	p2.jpg	5	1.631313	161
68.79	6	5	p14.jpg	6	2.764334	161
80.1	6	5	p3.jpg	7	3.140517	161
88.86	6	1	p21.jpg	1	1.28421	161
98.35	6	1	p12.jpg	1	1.366149	161
106.75	6	5	p13.jpg	5	2.598703	161
118.79	6	1	p5.jpg	4	2.104439	161
130.47	6	5	p9.jpg	3	2.473078	161
138.87	6	1	p17.jpg	2	2.059738	161
148	6	1	p1.jpg	1	1.989126	161
158.58	6	1	p16.jpg	1	1.359999	161
168.8	6	5	p7.jpg	5	3.211443	161
180.48	6	1	p22.jpg	2	2.70313	161
191.43	6	5	p6.jpg	5	2.25736	161
200.92	6	5	p4.jpg	3	2.836466	161
211.14	6	5	p8.jpg	4	2.33153	161
222.1	6	1	p20.jpg	2	1.949711	161
233.41	6	5	p11.jpg	4	1.871659	161
3.1	6	5	c13.jpg	6	2.572715	162
12.2	6	1	c23.jpg	1	1.352778	162
22	6	5	c6.jpg	5	3.847972	162
31.5	6	1	c22.jpg	2	1.820356	162
43.2	6	5	c19.jpg	6	1.360822	162
54.1	6	1	c7.jpg	3	2.241666	162
66.2	6	5	c1.jpg	2	2.158599	162
77.5	6	5	c2.jpg	5	3.027759	162
85.9	6	5	c21.jpg	5	4.361855	162
97.9	6	1	c15.jpg	2	2.138954	162
107.4	6	5	c8.jpg	7	1.088064	162
116.2	6	1	c9.jpg	1	1.130889	162
125.3	6	1	c24.jpg	2	1.713595	162
135.5	6	1	c3.jpg	3	1.75131	162
144.3	6	1	c20.jpg	4	1.599833	162
155.2	6	5	c10.jpg	7	1.549492	162
166.9	6	5	c17.jpg	7	2.607998	162
174.9	6	5	c18.jpg	6	1.490485	162
185.5	6	1	c5.jpg	2	2.607694	162
193.9	6	1	c14.jpg	1	2.164313	162
205.2	6	5	c11.jpg	5	4.720679	162
215.1	6	1	c12.jpg	1	1.575225	162
223.1	6	5	c16.jpg	6	1.797402	162
233.3	6	1	c4.jpg	1	2.174939	162
3.02	6	5	c5.jpg	4	2.042186	163
12.89	6	5	c23.jpg	3	1.574968	163
22.01	6	1	c6.jpg	2	1.517082	163
32.23	6	5	c4.jpg	6	1.753088	163
40.99	6	5	c14.jpg	5	1.405696	163
50.47	6	5	c15.jpg	5	1.223391	163
61.05	6	1	c8.jpg	3	1.167749	163
69.81	6	1	c11.jpg	2	1.600839	163
79.31	6	1	c1.jpg	2	1.923096	163
90.25	6	5	c20.jpg	4	1.948503	163
101.93	6	1	c21.jpg	2	1.75993	163
113.25	6	5	c3.jpg	5	1.311995	163
124.56	6	5	c24.jpg	3	1.233532	163
134.77	6	1	c17.jpg	1	1.125331	163
144.63	6	1	c2.jpg	1	1.098865	163
152.67	6	1	c19.jpg	2	1.46571	163
161.07	6	5	c12.jpg	7	1.248108	163
172	6	1	c10.jpg	2	1.354383	163
184.04	6	1	c13.jpg	3	1.651947	163
195.7	6	1	c18.jpg	2	1.97894	163
204.83	6	1	c16.jpg	2	1.40429	163
215.41	6	5	c22.jpg	6	1.040279	163
223.81	6	5	c7.jpg	6	1.650992	163
235.84	6	5	c9.jpg	5	0.9678214	163
3.04	6	1	p4.jpg	1	0.3778096	164
12.17	6	1	p13.jpg	4	2.029834	164
21.66	6	1	p10.jpg	4	2.683287	164
32.61	6	5	p16.jpg	6	2.050159	164
41.02	6	5	p22.jpg	5	2.119404	164
50.52	6	5	p19.jpg	5	1.727983	164
59.66	6	1	p11.jpg	4	1.461618	164
69.51	6	5	p15.jpg	5	1.628152	164
79.37	6	1	p7.jpg	5	0.9765553	164
89.95	6	5	p12.jpg	2	0.001002312	164
100.55	6	1	p8.jpg	5	1.668121	164
112.59	6	5	p5.jpg	6	1.202358	164
120.63	6	1	p2.jpg	3	1.968023	164
130.86	6	5	p20.jpg	4	1.759219	164
142.9	6	5	p1.jpg	5	1.439182	164
154.59	6	5	p18.jpg	6	1.185655	164
165.55	6	5	p21.jpg	6	1.35085	164
174.31	6	5	p17.jpg	5	1.670592	164
185.61	6	1	p14.jpg	6	1.322821	164
193.66	6	1	p23.jpg	6	1.751701	164
202.06	6	1	p3.jpg	2	1.547578	164
210.84	6	5	p24.jpg	5	2.23882	164
221.07	6	1	p9.jpg	6	1.877934	164
232.74	6	1	p6.jpg	4	2.022078	164
3.1	6	1	c3.jpg	4	2.419994	165
11.5	6	5	c6.jpg	6	2.28114	165
22.4	6	5	c19.jpg	4	1.85081	165
34.5	6	1	c9.jpg	2	3.130449	165
43.2	6	5	c13.jpg	6	1.444731	165
53.1	6	1	c24.jpg	1	1.854675	165
63	6	5	c21.jpg	5	2.365153	165
74.6	6	5	c10.jpg	7	1.458775	165
84.1	6	1	c15.jpg	1	1.102723	165
95.1	6	5	c16.jpg	7	1.252179	165
104.2	6	1	c14.jpg	2	2.886884	165
114.8	6	5	c8.jpg	5	2.337067	165
125.4	6	5	c1.jpg	7	1.527319	165
134.1	6	1	c4.jpg	2	1.450565	165
144.3	6	1	c5.jpg	1	0.948774	165
155.6	6	1	c22.jpg	2	1.483616	165
165.1	6	1	c12.jpg	1	1.047748	165
176.8	6	5	c18.jpg	5	2.457906	165
184.8	6	1	c20.jpg	2	2.98687	165
192.9	6	5	c11.jpg	5	1.619087	165
204.2	6	5	c2.jpg	6	1.150727	165
214.4	6	1	c23.jpg	1	0.9508018	165
226.5	6	1	c7.jpg	2	1.617918	165
235.6	6	5	c17.jpg	7	1.000952	165
3.1	6	1	c15.jpg	2	2.479784	166
13.3	6	5	c1.jpg	4	2.031551	166
22.8	6	1	c3.jpg	2	3.585202	166
31.2	6	1	c23.jpg	1	2.47783	166
42.9	6	1	c14.jpg	2	2.910664	166
52.4	6	1	c9.jpg	3	2.433382	166
62.2	6	5	c8.jpg	4	1.853796	166
72.8	6	5	c16.jpg	6	2.6207	166
80.8	6	1	c24.jpg	2	2.214883	166
88.9	6	5	c10.jpg	6	2.067007	166
97.6	6	1	c4.jpg	2	1.837255	166
109	6	1	c12.jpg	2	2.075735	166
118.1	6	1	c20.jpg	3	1.642283	166
126.8	6	5	c17.jpg	4	2.006449	166
137	6	1	c7.jpg	3	3.238353	166
148	6	5	c13.jpg	3	2.506293	166
156.4	6	5	c11.jpg	5	1.581609	166
165.5	6	5	c18.jpg	6	2.565484	166
175.4	6	5	c19.jpg	6	1.885536	166
187.4	6	1	c22.jpg	1	2.157996	166
199.5	6	5	c6.jpg	6	1.392166	166
211.1	6	1	c5.jpg	5	1.743336	166
221.7	6	5	c21.jpg	3	1.67938	166
232.7	6	5	c2.jpg	3	2.067073	166
3.04	6	5	p20.jpg	2	1.578925	171
12.55	6	1	p11.jpg	3	1.286848	171
22.05	6	5	p15.jpg	4	1.807286	171
32.68	6	1	p7.jpg	2	1.304715	171
41.09	6	5	p24.jpg	4	1.622406	171
49.85	6	5	p17.jpg	2	1.609686	171
57.89	6	5	p5.jpg	3	1.616489	171
66.3	6	1	p2.jpg	3	2.565048	171
74.34	6	1	p14.jpg	3	1.274018	171
84.19	6	5	p1.jpg	4	1.247474	171
95.51	6	1	p23.jpg	3	1.087514	171
106.46	6	5	p19.jpg	3	0.9660376	171
116.33	6	1	p6.jpg	3	1.015963	171
127.63	6	1	p3.jpg	2	1.429635	171
139.32	6	1	p10.jpg	3	1.084372	171
148.1	6	1	p4.jpg	3	0.9760026	171
158.31	6	5	p12.jpg	3	1.872726	171
168.55	6	5	p18.jpg	1	1.950851	171
179.5	6	1	p9.jpg	2	1.598982	171
190.09	6	5	p16.jpg	3	1.642882	171
202.13	6	5	p21.jpg	5	1.658905	171
211.26	6	1	p8.jpg	2	2.060705	171
220.39	6	1	p13.jpg	2	1.1269	171
232.44	6	5	p22.jpg	3	1.392017	171
3.03	6	5	p3.jpg	4	2.756012	172
11.08	6	5	p11.jpg	6	1.661756	172
22.04	6	1	p21.jpg	1	2.335831	172
33	6	5	p7.jpg	5	1.787915	172
42.85	6	5	p9.jpg	4	1.968197	172
51.99	6	5	p2.jpg	4	1.938765	172
63.31	6	1	p16.jpg	1	2.961499	172
74.98	6	5	p10.jpg	6	2.924396	172
85.21	6	1	p17.jpg	1	1.461782	172
94.34	6	5	p23.jpg	5	4.048331	172
103.84	6	1	p18.jpg	1	1.929815	172
114.06	6	1	p12.jpg	1	1.502925	172
123.92	6	1	p22.jpg	1	2.622993	172
135.97	6	1	p5.jpg	1	1.984903	172
144.02	6	5	p8.jpg	5	3.784073	172
152.8	6	1	p24.jpg	1	2.025055	172
161.2	6	1	p15.jpg	1	3.494319	172
171.79	6	1	p20.jpg	2	2.089112	172
180.56	6	1	p1.jpg	1	1.94227	172
191.87	6	5	p6.jpg	2	2.274518	172
200.28	6	1	p19.jpg	1	3.255283	172
209.78	6	5	p4.jpg	4	4.060677	172
221.46	6	5	p13.jpg	7	2.315021	172
233.51	6	5	p14.jpg	6	2.842797	172
3	6	1	c14.jpg	3	2.315677	173
11.1	6	5	c6.jpg	5	1.079439	173
20.9	6	1	c3.jpg	4	1.270382	173
29.3	6	5	c2.jpg	2	2.444039	173
37.7	6	1	c4.jpg	2	1.042492	173
48	6	5	c1.jpg	5	0.7206901	173
58.2	6	1	c24.jpg	4	1.910635	173
68.8	6	5	c13.jpg	5	0.9876641	173
77.5	6	5	c19.jpg	3	1.787814	173
88.9	6	5	c17.jpg	5	0.747107	173
98.3	6	5	c8.jpg	4	0.6708869	173
110.4	6	1	c9.jpg	5	1.633948	173
122.1	6	1	c5.jpg	2	1.507357	173
131.6	6	5	c10.jpg	5	0.9476972	173
143.2	6	5	c16.jpg	3	1.760098	173
154.2	6	1	c23.jpg	5	2.034049	173
165.5	6	1	c22.jpg	2	1.335257	173
174.2	6	1	c15.jpg	3	2.529146	173
185.2	6	1	c20.jpg	2	2.071552	173
197.2	6	1	c7.jpg	4	2.507656	173
206.3	6	5	c18.jpg	5	1.530746	173
214.4	6	1	c12.jpg	3	1.913524	173
224.2	6	5	c21.jpg	6	1.90802	173
233.4	6	5	c11.jpg	5	1.947971	173
3.03	6	5	p22.jpg	5	4.075232	174
11.09	6	5	p19.jpg	6	2.443569	174
22.4	6	5	p16.jpg	6	1.983061	174
30.8	6	1	p4.jpg	1	1.063102	174
42.84	6	1	p11.jpg	1	1.007365	174
51.6	6	5	p15.jpg	5	3.704711	174
63.27	6	1	p13.jpg	1	1.166991	174
71.3	6	1	p23.jpg	2	3.195508	174
82.24	6	5	p21.jpg	7	2.220538	174
92.83	6	5	p5.jpg	4	3.785426	174
101.6	6	5	p20.jpg	4	2.831059	174
110.73	6	1	p14.jpg	1	1.813715	174
120.94	6	1	p2.jpg	1	1.019308	174
132.62	6	1	p10.jpg	2	3.1049	174
142.13	6	1	p7.jpg	1	1.287504	174
152.71	6	5	p1.jpg	4	4.991305	174
162.57	6	5	p18.jpg	6	1.754381	174
173.52	6	5	p17.jpg	5	1.919327	174
183.73	6	1	p9.jpg	1	1.526603	174
195.05	6	1	p6.jpg	3	3.585965	174
204.2	6	5	p12.jpg	5	2.540098	174
216.24	6	1	p8.jpg	1	1.311213	174
224.64	6	1	p3.jpg	1	1.454339	174
234.5	6	5	p24.jpg	4	3.043032	174
3.03	6	5	c22.jpg	4	2.366232	175
13.26	6	1	c13.jpg	1	3.493944	175
22.39	6	5	c4.jpg	3	2.320188	175
33.34	6	1	c10.jpg	1	1.657594	175
42.1	6	1	c8.jpg	1	1.418164	175
52.68	6	5	c20.jpg	2	2.54753	175
62.16	6	5	c15.jpg	4	1.738433	175
72.75	6	1	c2.jpg	1	1.43526	175
84.42	6	1	c6.jpg	1	1.489984	175
92.83	6	5	c5.jpg	6	1.356842	175
101.24	6	5	c3.jpg	2	2.478662	175
110.37	6	5	c12.jpg	2	2.736675	175
121.67	6	5	c9.jpg	3	2.11945	175
129.71	6	5	c24.jpg	3	1.876293	175
141.4	6	1	c1.jpg	1	1.910949	175
150.88	6	1	c17.jpg	1	1.284871	175
162.92	6	1	c11.jpg	1	1.231749	175
174.24	6	5	c14.jpg	4	1.968664	175
186.28	6	5	c7.jpg	2	2.360609	175
196.13	6	1	c21.jpg	1	1.891434	175
207.08	6	1	c19.jpg	1	1.702699	175
217.3	6	1	c18.jpg	1	1.324941	175
225.33	6	5	c23.jpg	2	1.466112	175
234.1	6	1	c16.jpg	1	1.837899	175
3.03	6	1	p24.jpg	2	3.16342	176
11.81	6	1	p17.jpg	2	2.105124	176
23.85	6	1	p18.jpg	3	3.603911	176
32.26	6	5	p8.jpg	5	2.470027	176
43.21	6	5	p10.jpg	3	4.119237	176
52.34	6	5	p6.jpg	3	3.265133	176
62.56	6	5	p23.jpg	3	3.500293	176
71.32	6	5	p4.jpg	4	2.360905	176
83	6	5	p7.jpg	4	2.858069	176
93.58	6	5	p9.jpg	4	2.5867	176
103.44	6	5	p11.jpg	4	2.563074	176
114.78	6	5	p13.jpg	4	3.191819	176
122.82	6	5	p2.jpg	4	2.132866	176
131.22	6	1	p22.jpg	3	2.826253	176
140.72	6	5	p14.jpg	5	5.779814	176
150.21	6	1	p19.jpg	3	3.060948	176
161.16	6	5	p3.jpg	4	4.547328	176
173.25	6	1	p21.jpg	2	3.349989	176
184.55	6	1	p1.jpg	4	2.998297	176
192.63	6	1	p20.jpg	4	4.451029	176
202.5	6	1	p16.jpg	4	2.857431	176
213.09	6	1	p5.jpg	4	5.495258	176
223.32	6	1	p12.jpg	4	3.600024	176
232.45	6	1	p15.jpg	2	2.638299	176
3.032	6	5	p9.jpg	5	2.887287	178
15.086	6	1	p22.jpg	1	1.318918	178
23.501	6	1	p24.jpg	1	2.379331	178
35.539	6	1	p19.jpg	3	2.583066	178
43.583	6	1	p1.jpg	2	2.605144	178
54.897	6	5	p8.jpg	4	2.333105	178
66.569	6	5	p10.jpg	6	1.992742	178
74.973	6	5	p13.jpg	5	1.720255	178
84.462	6	1	p15.jpg	2	2.19832	178
96.142	6	5	p4.jpg	5	1.737951	178
104.177	6	5	p14.jpg	5	1.666976	178
112.942	6	1	p16.jpg	1	1.397879	178
122.067	6	5	p7.jpg	5	1.759001	178
133.011	6	5	p23.jpg	3	2.092342	178
143.594	6	5	p2.jpg	4	1.506305	178
153.457	6	5	p6.jpg	4	1.623071	178
163.677	6	5	p3.jpg	5	3.188207	178
174.986	6	1	p5.jpg	1	1.285857	178
185.565	6	1	p21.jpg	3	1.573887	178
195.443	6	1	p12.jpg	1	1.219743	178
204.207	6	1	p17.jpg	2	3.018233	178
214.426	6	1	p18.jpg	1	1.346536	178
223.924	6	1	p20.jpg	2	1.308956	178
234.869	6	5	p11.jpg	5	1.305326	178
3.031	6	1	c8.jpg	2	1.982749	182
13.629	6	5	c20.jpg	4	2.436069	182
25.303	6	5	c24.jpg	4	1.835416	182
36.612	6	5	c23.jpg	3	2.469924	182
48.653	6	1	c17.jpg	1	2.417013	182
60.326	6	5	c4.jpg	5	1.956715	182
70.539	6	1	c18.jpg	1	1.809361	182
78.59	6	1	c2.jpg	2	1.444727	182
89.896	6	1	c21.jpg	1	1.439042	182
99.025	6	1	c10.jpg	2	1.64722	182
111.059	6	5	c22.jpg	4	1.529191	182
121.641	6	1	c6.jpg	3	2.615595	182
131.132	6	1	c11.jpg	2	2.090392	182
141.354	6	5	c14.jpg	6	2.149755	182
150.126	6	5	c5.jpg	7	1.209721	182
158.169	6	5	c3.jpg	5	2.406505	182
168.018	6	1	c19.jpg	2	1.78186	182
176.417	6	5	c7.jpg	4	2.566585	182
185.904	6	1	c16.jpg	3	1.922224	182
194.667	6	5	c12.jpg	5	1.425877	182
205.606	6	1	c13.jpg	1	2.327959	182
215.465	6	5	c15.jpg	3	2.47732	182
223.864	6	5	c9.jpg	6	1.286782	182
233.003	6	1	c1.jpg	2	2.137788	182
3.03	6	1	p1.jpg	5	2.64798	183
12.9	6	5	p4.jpg	5	2.032569	183
22.76	6	5	p9.jpg	6	1.960703	183
33.36	6	5	p10.jpg	2	2.371296	183
41.76	6	1	p15.jpg	2	2.063612	183
52.35	6	1	p18.jpg	3	2.056599	183
64.38	6	1	p16.jpg	3	2.209142	183
76.05	6	1	p24.jpg	1	1.845067	183
84.46	6	5	p7.jpg	4	2.20052	183
94.69	6	1	p17.jpg	2	2.668978	183
104.19	6	5	p8.jpg	6	2.205854	183
113.68	6	5	p6.jpg	2	2.053551	183
121.72	6	1	p19.jpg	2	2.016368	183
130.48	6	1	p20.jpg	1	2.102228	183
139.62	6	5	p13.jpg	5	2.458517	183
151.3	6	1	p22.jpg	3	2.064401	183
159.34	6	1	p5.jpg	3	2.294803	183
169.57	6	5	p14.jpg	5	1.655719	183
180.52	6	5	p2.jpg	5	1.828984	183
192.57	6	5	p11.jpg	7	2.296859	183
201.33	6	5	p3.jpg	4	2.048647	183
210.46	6	5	p23.jpg	2	2.323092	183
221.77	6	1	p12.jpg	3	1.979029	183
233.09	6	1	p21.jpg	4	3.891001	183
3.1	6	1	c13.jpg	5	0.8244458	184
12.6	6	5	c12.jpg	5	2.16184	184
23.2	6	1	c6.jpg	1	1.689139	184
31.6	6	5	c9.jpg	2	0.925238	184
40.3	6	1	c21.jpg	3	1.664163	184
49.1	6	5	c5.jpg	5	1.827827	184
57.5	6	5	c3.jpg	2	3.290147	184
68.4	6	5	c14.jpg	3	2.216746	184
77.9	6	1	c19.jpg	2	2.241375	184
88.9	6	5	c22.jpg	2	1.788618	184
96.9	6	5	c7.jpg	3	2.645951	184
108.6	6	1	c8.jpg	2	4.476306	184
120.3	6	1	c17.jpg	5	1.092538	184
130.8	6	1	c10.jpg	5	2.249123	184
142.2	6	1	c1.jpg	1	1.135477	184
152	6	5	c24.jpg	2	0.8429882	184
161.9	6	1	c16.jpg	5	2.252192	184
171	6	1	c2.jpg	5	1.351532	184
181.2	6	1	c18.jpg	4	1.498388	184
193.3	6	5	c15.jpg	2	1.758173	184
205.3	6	5	c23.jpg	4	3.887253	184
216.6	6	5	c4.jpg	2	2.241638	184
225.7	6	1	c11.jpg	5	1.210052	184
233.8	6	5	c20.jpg	5	2.410776	184
3.03	6	1	p20.jpg	2	5.005526	185
14.35	6	1	p19.jpg	2	2.120571	185
22.75	6	5	p2.jpg	4	1.583971	185
31.16	6	1	p18.jpg	2	1.640503	185
39.21	6	1	p5.jpg	1	1.998699	185
47.97	6	1	p21.jpg	2	1.794706	185
58.55	6	5	p9.jpg	4	2.374456	185
68.77	6	5	p11.jpg	5	1.798213	185
80.82	6	1	p24.jpg	2	1.967863	185
92.5	6	5	p6.jpg	6	1.918501	185
104.17	6	1	p16.jpg	3	2.664651	185
114.04	6	5	p23.jpg	2	2.504872	185
124.63	6	1	p12.jpg	3	3.793908	185
135.58	6	5	p8.jpg	4	1.925375	185
144.35	6	5	p13.jpg	2	2.357609	185
154.22	6	1	p1.jpg	3	1.611841	185
166.27	6	5	p10.jpg	3	3.04427	185
177.23	6	5	p14.jpg	3	1.966165	185
186.73	6	1	p22.jpg	2	2.291037	185
195.86	6	5	p4.jpg	5	1.953023	185
207.18	6	5	p3.jpg	5	1.96468	185
215.22	6	5	p7.jpg	4	2.552677	185
224.36	6	1	p15.jpg	2	2.384637	185
233.86	6	1	p17.jpg	2	3.192	185
3.02	6	1	c9.jpg	5	1.339316	186
13.62	6	5	c13.jpg	3	0.9662055	186
23.12	6	1	c14.jpg	4	0.6061209	186
34.79	6	5	c17.jpg	6	1.191191	186
46.83	6	5	c21.jpg	4	0.7118448	186
56.67	6	1	c15.jpg	4	2.169862	186
65.43	6	1	c22.jpg	4	1.916767	186
73.47	6	1	c3.jpg	5	3.598503	186
84.78	6	5	c10.jpg	3	0.6287043	186
96.08	6	5	c16.jpg	4	0.7682612	186
106.3	6	5	c11.jpg	5	1.462656	186
117.24	6	1	c5.jpg	4	4.313003	186
126.36	6	1	c12.jpg	6	1.339386	186
136.58	6	1	c4.jpg	NA	NA	186
146.44	6	5	c6.jpg	3	2.332637	186
155.22	6	5	c2.jpg	5	1.84145	186
163.62	6	5	c18.jpg	5	3.54025	186
171.66	6	1	c23.jpg	4	1.492899	186
183.69	6	5	c8.jpg	5	3.006833	186
192.83	6	1	c24.jpg	3	1.982335	186
202.31	6	1	c7.jpg	6	1.45553	186
213.27	6	5	c19.jpg	5	1.548467	186
224.95	6	5	c1.jpg	5	3.78E-04	186
235.53	6	1	c20.jpg	7	1.158039	186
3.03	6	5	p12.jpg	6	2.680135	187
11.45	6	5	p19.jpg	1	1.844019	187
19.5	6	5	p22.jpg	2	2.277572	187
31.54	6	1	p8.jpg	1	2.885963	187
41.04	6	1	p9.jpg	2	1.698735	187
50.17	6	1	p7.jpg	1	1.829238	187
62.21	6	1	p2.jpg	1	3.042018	187
73.53	6	1	p6.jpg	2	2.608166	187
83.75	6	1	p23.jpg	1	1.48379	187
94.34	6	1	p14.jpg	2	2.032538	187
106.03	6	1	p13.jpg	2	2.378541	187
115.88	6	5	p17.jpg	3	1.745093	187
126.83	6	1	p4.jpg	1	1.924897	187
135.23	6	5	p21.jpg	3	2.237984	187
145.45	6	1	p10.jpg	2	2.610958	187
156.41	6	1	p3.jpg	3	1.706743	187
165.18	6	5	p18.jpg	2	2.433457	187
174.31	6	5	p16.jpg	3	2.196448	187
184.18	6	1	p11.jpg	3	1.920699	187
192.22	6	5	p24.jpg	3	2.017751	187
203.9	6	5	p5.jpg	2	1.690618	187
214.51	6	5	p15.jpg	3	2.070237	187
223.27	6	5	p1.jpg	3	1.447951	187
234.58	6	5	p20.jpg	3	2.032833	187
3.02	6	5	c9.jpg	4	3.025809	188
11.79	6	1	c19.jpg	1	2.756735	188
23.11	6	5	c14.jpg	4	3.073539	188
35.15	6	5	c15.jpg	3	2.105471	188
46.45	6	5	c20.jpg	4	3.028155	188
56.67	6	5	c4.jpg	4	2.546428	188
67.64	6	5	c23.jpg	3	2.39477	188
76.04	6	1	c8.jpg	1	2.314327	188
86.26	6	1	c6.jpg	1	1.424219	188
96.86	6	5	c3.jpg	3	3.954176	188
106.73	6	1	c1.jpg	2	2.63661	188
117.67	6	5	c5.jpg	3	2.160185	188
127.16	6	1	c13.jpg	1	2.330877	188
135.93	6	1	c21.jpg	1	1.198439	188
147.61	6	1	c11.jpg	1	1.412334	188
156.02	6	1	c2.jpg	1	5.077819	188
165.15	6	1	c18.jpg	1	1.316142	188
177.19	6	1	c17.jpg	1	1.11191	188
186.68	6	5	c7.jpg	1	2.638519	188
194.72	6	1	c16.jpg	1	1.71585	188
204.58	6	5	c22.jpg	4	2.910229	188
216.25	6	1	c10.jpg	3	2.218302	188
224.29	6	5	c12.jpg	3	2.232763	188
234.88	6	5	c24.jpg	3	1.642553	188
3.04	6	1	p22.jpg	2	5.296164	190
14	6	5	p14.jpg	1	3.625053	190
26.04	6	1	p19.jpg	2	2.408326	190
34.44	6	1	p17.jpg	5	4.607059	190
44.3	6	5	p13.jpg	2	2.375069	190
55.25	6	5	p2.jpg	2	2.881502	190
64.02	6	1	p5.jpg	3	2.086986	190
74.24	6	5	p4.jpg	5	3.470909	190
84.09	6	5	p3.jpg	2	4.418516	190
92.12	6	1	p15.jpg	2	2.771461	190
100.16	6	5	p9.jpg	2	3.134004	190
109.65	6	1	p24.jpg	2	3.667549	190
120.24	6	1	p21.jpg	2	3.757196	190
129.74	6	5	p7.jpg	2	4.092216	190
140.32	6	1	p20.jpg	2	3.462285	190
149.09	6	1	p1.jpg	2	3.078934	190
158.22	6	1	p18.jpg	5	2.387937	190
169.89	6	5	p8.jpg	5	3.79054	190
181.2	6	1	p16.jpg	2	2.129595	190
193.23	6	5	p10.jpg	3	2.049824	190
203.46	6	5	p23.jpg	3	2.520283	190
212.58	6	5	p11.jpg	3	2.0574	190
224.27	6	5	p6.jpg	2	3.147445	190
232.67	6	1	p12.jpg	3	2.710487	190
3.03	6	5	c14.jpg	4	1.721151	191
11.45	6	5	c15.jpg	4	1.718243	191
23.48	6	1	c8.jpg	1	1.041426	191
35.16	6	1	c18.jpg	1	0.942242	191
45.74	6	5	c20.jpg	7	1.515661	191
56.32	6	5	c5.jpg	4	1.894134	191
64.37	6	1	c1.jpg	1	1.111429	191
72.76	6	1	c19.jpg	1	0.8642579	191
81.52	6	5	c7.jpg	5	1.791187	191
92.83	6	1	c17.jpg	1	0.8186723	191
101.96	6	1	c13.jpg	1	0.8515771	191
114.01	6	5	c3.jpg	4	1.925491	191
123.49	6	5	c24.jpg	5	1.477213	191
134.43	6	1	c11.jpg	1	0.9004744	191
144.65	6	1	c10.jpg	1	0.8303956	191
154.5	6	5	c12.jpg	5	1.53388	191
164.72	6	1	c6.jpg	1	1.070893	191
175.67	6	1	c21.jpg	1	0.9030983	191
185.15	6	5	c23.jpg	5	1.79354	191
193.92	6	5	c4.jpg	5	1.033777	191
205.6	6	1	c16.jpg	1	1.27609	191
213.63	6	5	c22.jpg	6	1.461656	191
222.76	6	5	c9.jpg	7	1.0048	191
232.62	6	1	c2.jpg	1	1.212942	191
3	6	1	p23.jpg	1	2.413066	192
14.4	6	5	p12.jpg	4	1.782828	192
24.6	6	5	p20.jpg	2	1.751247	192
35.2	6	1	p13.jpg	1	1.587145	192
46.9	6	1	p2.jpg	1	3.550267	192
56	6	1	p14.jpg	3	1.831936	192
64	6	1	p3.jpg	1	1.01847	192
73.5	6	1	p6.jpg	2	1.841716	192
83.7	6	1	p10.jpg	4	2.199528	192
95.8	6	5	p5.jpg	NA	NA	192
107.5	6	5	p16.jpg	6	1.778361	192
115.9	6	5	p15.jpg	6	2.097543	192
125	6	5	p17.jpg	4	2.618327	192
136	6	1	p11.jpg	1	2.051176	192
146.5	6	1	p4.jpg	1	0.8774516	192
156.4	6	1	p7.jpg	2	1.682109	192
167.4	6	1	p9.jpg	1	0.979169	192
176.1	6	5	p24.jpg	4	1.753193	192
184.9	6	5	p21.jpg	3	1.334535	192
196.2	6	5	p22.jpg	3	2.437507	192
206.1	6	1	p8.jpg	1	1.200464	192
214.5	6	5	p1.jpg	5	2.327726	192
222.5	6	5	p18.jpg	5	2.24337	192
234.6	6	5	p19.jpg	3	3.182569	192
3.026	6	1	c16.jpg	3	2.278632	193
15.075	6	5	c5.jpg	4	1.295143	193
23.476	6	5	c7.jpg	4	2.280096	193
31.516	6	1	c17.jpg	4	1.528438	193
42.095	6	1	c10.jpg	3	1.504189	193
53.405	6	5	c24.jpg	4	1.821907	193
63.983	6	5	c9.jpg	4	1.659302	193
72.747	6	1	c8.jpg	4	1.706568	193
82.971	6	5	c3.jpg	5	1.636745	193
93.92	6	1	c19.jpg	3	2.509106	193
102.692	6	1	c2.jpg	5	1.602264	193
111.089	6	1	c11.jpg	4	1.48019	193
120.946	6	5	c14.jpg	4	1.277338	193
132.976	6	5	c20.jpg	5	2.528917	193
142.472	6	5	c23.jpg	5	2.359521	193
152.341	6	1	c1.jpg	4	3.760249	193
164.011	6	5	c15.jpg	5	2.763631	193
175.68	6	1	c18.jpg	5	1.588382	193
186.626	6	5	c4.jpg	5	1.75831	193
196.846	6	5	c22.jpg	5	3.798416	193
208.147	6	1	c21.jpg	2	2.675596	193
217.637	6	1	c13.jpg	1	2.069393	193
225.676	6	5	c12.jpg	4	2.771051	193
234.804	6	1	c6.jpg	2	2.300196	193
3.04	6	1	p8.jpg	4	1.801356	194
12.56	6	5	p20.jpg	6	1.735597	194
22.05	6	1	p14.jpg	4	1.417493	194
31.18	6	1	p10.jpg	5	1.482907	194
43.22	6	5	p12.jpg	6	1.282247	194
55.26	6	5	p22.jpg	3	1.584273	194
66.57	6	1	p9.jpg	4	0.963512	194
77.51	6	1	p4.jpg	3	1.50051	194
88.82	6	1	p7.jpg	3	1.053469	194
96.87	6	1	p3.jpg	3	0.8679411	194
108.55	6	5	p18.jpg	4	0.8868827	194
119.5	6	1	p23.jpg	5	0.659533	194
129.35	6	5	p5.jpg	5	0.7703483	194
139.93	6	5	p24.jpg	5	0.8848473	194
149.78	6	5	p15.jpg	4	0.661859	194
158.18	6	5	p16.jpg	6	1.108973	194
166.95	6	5	p17.jpg	5	0.5916917	194
174.99	6	5	p1.jpg	5	1.442997	194
184.12	6	5	p21.jpg	5	1.043608	194
194.34	6	1	p13.jpg	5	1.089754	194
204.93	6	1	p11.jpg	5	0.8210206	194
213.69	6	5	p19.jpg	5	0.9811677	194
225.38	6	1	p6.jpg	6	1.144419	194
233.78	6	1	p2.jpg	5	1.0599	194
3.04	6	5	p20.jpg	3	2.459478	195
14	6	5	p17.jpg	4	1.91778	195
25.31	6	1	p23.jpg	2	2.40547	195
33.34	6	1	p14.jpg	2	2.136493	195
43.93	6	1	p11.jpg	3	1.533995	195
53.79	6	5	p22.jpg	3	2.720595	195
63.28	6	1	p4.jpg	3	3.168809	195
74.59	6	5	p5.jpg	2	2.2094	195
84.81	6	5	p18.jpg	3	2.733344	195
93.94	6	1	p3.jpg	2	1.478414	195
103.43	6	5	p19.jpg	5	1.386606	195
111.47	6	1	p10.jpg	2	1.343896	195
120.59	6	5	p12.jpg	4	2.068319	195
128.99	6	1	p2.jpg	4	2.088643	195
137.77	6	1	p7.jpg	1	1.616067	195
148.72	6	5	p16.jpg	2	1.403581	195
157.48	6	1	p13.jpg	5	1.286557	195
165.89	6	1	p8.jpg	1	3.216363	195
177.55	6	5	p15.jpg	3	1.731423	195
189.23	6	1	p9.jpg	4	2.623148	195
201.27	6	5	p24.jpg	2	2.562337	195
211.12	6	5	p1.jpg	2	5.793103	195
223.16	6	1	p6.jpg	4	3.249143	195
233.37	6	5	p21.jpg	3	3.107472	195
3.03	6	1	p22.jpg	4	2.698377	196
11.09	6	1	p20.jpg	4	2.37246	196
20.22	6	1	p1.jpg	4	3.218312	196
30.44	6	1	p16.jpg	3	1.604799	196
39.21	6	5	p13.jpg	5	1.709116	196
50.16	6	1	p5.jpg	4	2.902995	196
62.2	6	5	p8.jpg	6	1.564433	196
73.51	6	5	p7.jpg	6	1.673462	196
83.74	6	5	p4.jpg	5	2.304479	196
93.24	6	1	p21.jpg	4	2.534441	196
103.83	6	5	p2.jpg	6	1.48478	196
114.42	6	5	p6.jpg	6	3.408349	196
126.46	6	1	p15.jpg	2	1.72363	196
137.41	6	5	p3.jpg	6	1.16017	196
147.27	6	5	p11.jpg	5	2.027891	196
155.67	6	1	p18.jpg	3	2.429612	196
164.07	6	1	p24.jpg	4	2.799066	196
173.93	6	5	p10.jpg	4	1.863174	196
182.7	6	5	p14.jpg	4	2.808926	196
190.73	6	5	p9.jpg	6	2.260314	196
199.87	6	1	p12.jpg	3	1.746593	196
211.18	6	5	p23.jpg	4	2.73672	196
222.86	6	1	p17.jpg	4	3.570886	196
234.52	6	1	p19.jpg	4	1.440589	196
3.022	6	1	c6.jpg	2	2.065494	197
11.802	6	5	c4.jpg	4	1.581566	197
20.569	6	1	c19.jpg	4	1.5256	197
31.165	6	5	c3.jpg	4	1.369686	197
39.221	6	1	c2.jpg	3	1.653705	197
47.264	6	5	c7.jpg	2	1.471098	197
57.117	6	1	c8.jpg	2	2.518757	197
66.242	6	5	c24.jpg	5	1.409677	197
77.561	6	1	c1.jpg	2	2.019058	197
87.049	6	1	c21.jpg	2	1.427462	197
95.447	6	5	c5.jpg	4	1.338291	197
106.034	6	1	c18.jpg	2	1.601317	197
118.072	6	1	c10.jpg	2	1.311296	197
129.749	6	5	c12.jpg	3	1.66172	197
138.886	6	1	c16.jpg	3	1.438846	197
150.196	6	1	c11.jpg	2	1.793851	197
160.056	6	5	c15.jpg	4	1.55973	197
171.729	6	5	c23.jpg	4	1.461712	197
183.765	6	5	c9.jpg	2	2.069678	197
192.162	6	5	c14.jpg	4	1.329775	197
201.656	6	1	c13.jpg	1	2.28145	197
211.875	6	1	c17.jpg	3	2.184966	197
222.811	6	5	c22.jpg	4	1.503353	197
233.758	6	5	c20.jpg	4	1.713297	197
3.03	6	5	p22.jpg	3	2.02545	201
12.55	6	5	p21.jpg	5	1.504375	201
24.58	6	5	p16.jpg	5	1.61718	201
34.81	6	5	p1.jpg	5	1.43398	201
43.21	6	1	p3.jpg	1	2.453194	201
54.16	6	5	p20.jpg	2	2.366206	201
64.74	6	5	p18.jpg	4	2.317737	201
72.77	6	5	p12.jpg	2	2.788769	201
82.63	6	1	p11.jpg	2	3.617471	201
91.04	6	1	p4.jpg	3	2.683394	201
100.54	6	1	p8.jpg	2	1.922106	201
112.57	6	1	p9.jpg	2	1.427725	201
122.8	6	5	p24.jpg	3	3.050868	201
133.74	6	1	p7.jpg	1	1.893501	201
143.59	6	1	p10.jpg	2	2.053412	201
152.36	6	1	p14.jpg	2	2.371465	201
163.67	6	1	p23.jpg	3	2.78256	201
174.25	6	1	p13.jpg	2	2.371914	201
182.29	6	5	p5.jpg	3	2.146192	201
191.05	6	5	p19.jpg	6	2.561476	201
200.18	6	1	p2.jpg	2	2.78025	201
211.87	6	5	p17.jpg	3	2.10616	201
223.54	6	1	p6.jpg	3	2.453778	201
232.67	6	5	p15.jpg	5	2.269348	201
3.04	6	1	c12.jpg	1	1.878455	202
14.36	6	5	c17.jpg	6	1.60947	202
23.12	6	5	c13.jpg	5	2.501546	202
34.79	6	1	c14.jpg	2	2.481864	202
44.64	6	5	c10.jpg	6	2.217618	202
55.22	6	5	c11.jpg	5	0.9061071	202
64.71	6	1	c20.jpg	1	2.161026	202
73.47	6	5	c18.jpg	6	1.590494	202
82.61	6	1	c3.jpg	1	2.797581	202
91.73	6	5	c21.jpg	4	2.502162	202
103.77	6	5	c8.jpg	5	1.819016	202
115.08	6	1	c15.jpg	1	2.777557	202
123.48	6	1	c22.jpg	2	1.971883	202
134.07	6	1	c5.jpg	1	3.068212	202
143.56	6	1	c9.jpg	1	3.369515	202
155.23	6	5	c16.jpg	6	1.872902	202
165.1	6	5	c1.jpg	4	1.929916	202
175.32	6	1	c4.jpg	3	2.802223	202
185.54	6	1	c24.jpg	2	1.908061	202
196.49	6	5	c2.jpg	6	2.702882	202
207.43	6	1	c23.jpg	1	2.948944	202
215.47	6	5	c6.jpg	5	2.331741	202
223.51	6	5	c19.jpg	5	2.890866	202
231.91	6	1	c7.jpg	2	1.763554	202
3	6	1	c20.jpg	2	1.064166	203
12.5	6	5	c17.jpg	4	1.552452	203
23.5	6	1	c24.jpg	1	1.46975	203
35.5	6	1	c5.jpg	1	1.310336	203
45.7	6	1	c14.jpg	2	0.9356195	203
54.9	6	5	c11.jpg	2	1.592512	203
65.1	6	5	c16.jpg	3	1.464281	203
75	6	1	c4.jpg	2	1.060789	203
86.3	6	5	c13.jpg	2	2.535311	203
97.9	6	1	c7.jpg	2	1.373547	203
106	6	1	c12.jpg	1	1.418447	203
115.8	6	5	c8.jpg	2	1.323409	203
124.6	6	1	c3.jpg	NA	NA	203
136.3	6	1	c23.jpg	1	1.56654	203
144.7	6	5	c10.jpg	5	1.630435	203
156.7	6	5	c18.jpg	2	1.106356	203
165.8	6	1	c15.jpg	1	1.117806	203
176.8	6	1	c22.jpg	1	1.09264	203
187.3	6	5	c19.jpg	4	1.886755	203
197.9	6	5	c21.jpg	4	2.167078	203
207.4	6	1	c9.jpg	2	1.318964	203
216.2	6	5	c1.jpg	2	1.079931	203
224.6	6	5	c6.jpg	3	2.125325	203
235.9	6	5	c2.jpg	2	2.334932	203
3.02	6	5	c19.jpg	5	2.559646	204
11.45	6	5	c1.jpg	3	2.724623	204
22.76	6	1	c9.jpg	3	2.729263	204
31.53	6	5	c16.jpg	3	3.022987	204
41.38	6	5	c21.jpg	5	2.90522	204
50.87	6	5	c13.jpg	5	2.761283	204
62.91	6	1	c3.jpg	2	3.291117	204
73.13	6	1	c20.jpg	2	2.522857	204
82.99	6	5	c6.jpg	5	2.045675	204
93.57	6	5	c17.jpg	5	1.884608	204
102.7	6	1	c7.jpg	3	2.492726	204
111.84	6	5	c2.jpg	6	1.899069	204
120.6	6	1	c4.jpg	2	1.580966	204
132.27	6	1	c15.jpg	3	1.539867	204
142.85	6	1	c14.jpg	3	2.629247	204
153.79	6	1	c23.jpg	2	2.291843	204
165.09	6	1	c22.jpg	2	2.601573	204
173.49	6	5	c11.jpg	4	1.601705	204
181.52	6	5	c10.jpg	6	1.468167	204
191.75	6	1	c12.jpg	1	1.849934	204
199.79	6	1	c5.jpg	2	1.447982	204
211.83	6	5	c18.jpg	6	2.490796	204
223.5	6	5	c8.jpg	7	1.984458	204
234.44	6	1	c24.jpg	2	1.455836	204
3.03	6	5	c15.jpg	3	1.935641	205
11.07	6	5	c12.jpg	6	2.251291	205
22.75	6	5	c23.jpg	3	2.241543	205
31.52	6	5	c9.jpg	3	2.047356	205
41.73	6	5	c20.jpg	4	3.197396	205
51.22	6	1	c21.jpg	2	3.968293	205
59.26	6	5	c7.jpg	4	3.707532	205
69.1	6	5	c14.jpg	3	2.230722	205
81.13	6	1	c10.jpg	2	3.336462	205
92.44	6	1	c6.jpg	2	3.514696	205
102.65	6	5	c4.jpg	3	2.089146	205
111.05	6	1	c16.jpg	2	2.281488	205
120.91	6	5	c3.jpg	5	3.864989	205
130.04	6	5	c24.jpg	1	2.282529	205
141	6	1	c2.jpg	2	1.767132	205
150.12	6	5	c5.jpg	2	2.740082	205
160.7	6	1	c13.jpg	2	3.90073	205
172.73	6	1	c18.jpg	1	1.686994	205
183.68	6	1	c19.jpg	3	2.426067	205
195.36	6	1	c1.jpg	2	3.782549	205
203.75	6	1	c11.jpg	2	3.162892	205
212.51	6	5	c22.jpg	4	2.307854	205
223.82	6	1	c8.jpg	3	3.016119	205
233.31	6	1	c17.jpg	2	2.099271	205
3.1	6	5	p9.jpg	5	1.985294	207
13.3	6	5	p23.jpg	4	2.481757	207
21.7	6	5	p11.jpg	5	1.109352	207
31.6	6	5	p10.jpg	5	1.338015	207
42.1	6	5	p2.jpg	4	1.999122	207
51.3	6	1	p22.jpg	2	1.73164	207
61.9	6	1	p24.jpg	1	1.488395	207
73.5	6	1	p16.jpg	4	1.516483	207
81.6	6	5	p13.jpg	5	1.33994	207
90.4	6	1	p15.jpg	3	1.91899	207
98.8	6	1	p1.jpg	1	1.469179	207
108.6	6	1	p18.jpg	1	2.0461	207
120.7	6	5	p4.jpg	3	1.496611	207
132	6	1	p19.jpg	2	1.272924	207
141.1	6	1	p12.jpg	1	1.784221	207
152.1	6	1	p21.jpg	3	1.892324	207
160.8	6	1	p5.jpg	1	2.248353	207
172.2	6	1	p17.jpg	2	2.322159	207
182.4	6	1	p20.jpg	1	2.076978	207
191.9	6	5	p14.jpg	3	2.651458	207
203.9	6	5	p3.jpg	5	1.539846	207
215.6	6	5	p7.jpg	6	1.555652	207
223.6	6	5	p6.jpg	5	1.323754	207
233.1	6	5	p8.jpg	4	1.449887	207
3	6	1	c15.jpg	1	2.034243	212
12.2	6	5	c16.jpg	6	2.319192	212
22	6	1	c9.jpg	1	1.7126	212
34.1	6	5	c13.jpg	6	2.550052	212
42.5	6	5	c1.jpg	5	2.913884	212
53.4	6	1	c7.jpg	1	1.651232	212
64.4	6	1	c3.jpg	2	1.864517	212
74.9	6	1	c4.jpg	2	2.225115	212
83.4	6	1	c23.jpg	3	1.892877	212
92.1	6	5	c2.jpg	6	2.706727	212
100.9	6	5	c8.jpg	7	1.193746	212
112.2	6	5	c18.jpg	6	1.365533	212
122.4	6	1	c14.jpg	1	3.755204	212
133.7	6	5	c17.jpg	7	1.446122	212
143.2	6	1	c12.jpg	3	1.783621	212
154.9	6	1	c5.jpg	2	2.823193	212
165.1	6	5	c11.jpg	7	1.409093	212
173.1	6	1	c24.jpg	2	2.230838	212
183	6	5	c6.jpg	7	1.71701	212
194.7	6	1	c20.jpg	2	2.24509	212
202.7	6	5	c10.jpg	6	4.138972	212
211.8	6	5	c21.jpg	6	3.254796	212
222.4	6	5	c19.jpg	5	2.260774	212
234.4	6	1	c22.jpg	2	1.953801	212
3	6	1	p6.jpg	3	1.750467	214
13.6	6	5	p16.jpg	5	2.327751	214
24.6	6	1	p8.jpg	2	2.264954	214
34.8	6	5	p15.jpg	7	1.891198	214
43.6	6	1	p3.jpg	1	2.66388	214
54.5	6	5	p17.jpg	6	3.333101	214
62.6	6	1	p14.jpg	1	2.99906	214
70.6	6	1	p23.jpg	5	2.317066	214
79.4	6	5	p5.jpg	5	3.69495	214
89.2	6	5	p19.jpg	6	2.058485	214
97.6	6	5	p20.jpg	5	1.728292	214
107.9	6	1	p7.jpg	2	2.822951	214
119.2	6	5	p1.jpg	6	2.265112	214
128.3	6	1	p13.jpg	5	0.167344	214
136.7	6	1	p9.jpg	4	2.332421	214
148.7	6	1	p11.jpg	2	1.326742	214
160.4	6	5	p12.jpg	5	1.598393	214
172.5	6	5	p24.jpg	5	4.25E-04	214
183.1	6	1	p4.jpg	2	2.961468	214
192.9	6	1	p10.jpg	2	3.313573	214
202.1	6	5	p18.jpg	6	2.511153	214
213.4	6	1	p2.jpg	6	2.54325	214
222.9	6	5	p22.jpg	5	1.962275	214
234.6	6	5	p21.jpg	3	3.361982	214
0	6	5	c17.jpg	5	2.54	215
0	6	5	c8.jpg	5	2.16	215
0	6	5	c21.jpg	3	2.43	215
0	6	1	c15.jpg	1	1.93	215
0	6	5	c10.jpg	5	1.69	215
0	6	1	c5.jpg	1	1.48	215
0	6	5	c6.jpg	6	2.89	215
0	6	5	c11.jpg	5	2.22	215
0	6	1	c7.jpg	2	2.65	215
0	6	5	c18.jpg	2	2.25	215
0	6	1	c22.jpg	1	2.44	215
0	6	1	c3.jpg	2	3.18	215
0	6	5	c19.jpg	6	1.91	215
0	6	1	c20.jpg	1	2.31	215
0	6	1	c4.jpg	1	1.09	215
0	6	1	c14.jpg	1	1.2	215
0	6	5	c16.jpg	6	1.93	215
0	6	5	c1.jpg	5	1.13	215
0	6	5	c2.jpg	6	1.94	215
0	6	5	c13.jpg	3	2.27	215
0	6	1	c24.jpg	1	2.77	215
0	6	1	c23.jpg	1	1.54	215
0	6	1	c12.jpg	1	1.53	215
0	6	1	c9.jpg	2	2.29	215
3	6	5	p22.jpg	2	2.382461	216
13.6	6	5	p12.jpg	3	2.703864	216
22.7	6	1	p8.jpg	1	2.038456	216
34.8	6	5	p16.jpg	5	2.060604	216
46.5	6	1	p6.jpg	2	3.304515	216
54.5	6	1	p4.jpg	2	2.571975	216
65.4	6	1	p11.jpg	1	2.681383	216
75.3	6	5	p20.jpg	3	3.04391	216
85.2	6	5	p5.jpg	4	1.858137	216
97.2	6	5	p21.jpg	5	2.721722	216
108.5	6	5	p18.jpg	6	3.189849	216
117.3	6	5	p15.jpg	1	3.619471	216
127.5	6	5	p17.jpg	5	2.511724	216
137	6	5	p1.jpg	7	1.274603	216
148	6	5	p24.jpg	2	4.148497	216
156.4	6	1	p3.jpg	1	2.558928	216
167.7	6	1	p13.jpg	4	2.897328	216
176.5	6	1	p2.jpg	5	2.267902	216
186.7	6	1	p7.jpg	1	3.953474	216
198.4	6	1	p10.jpg	1	2.100197	216
206.8	6	1	p9.jpg	1	4.661795	216
217.4	6	1	p14.jpg	2	3.096108	216
226.9	6	5	p19.jpg	6	2.041323	216
234.9	6	1	p23.jpg	2	4.175652	216
3	6	5	c10.jpg	4	3.865565	220
11.8	6	1	c14.jpg	6	1.589243	220
21.7	6	5	c1.jpg	3	2.734556	220
33.7	6	1	c24.jpg	4	2.558055	220
45	6	1	c23.jpg	4	1.324268	220
53.4	6	5	c17.jpg	4	1.716279	220
64.7	6	5	c11.jpg	5	2.152131	220
75.3	6	1	c20.jpg	5	4.52E-04	220
87.3	6	1	c12.jpg	4	4.49E-04	220
96.1	6	5	c8.jpg	4	7.25E-04	220
105.2	6	1	c22.jpg	5	1.861449	220
116.2	6	5	c21.jpg	5	2.687951	220
126	6	1	c7.jpg	4	2.205459	220
135.5	6	1	c4.jpg	5	1.426568	220
146.1	6	5	c13.jpg	1	1.452584	220
157.8	6	1	c3.jpg	6	1.40075	220
166.9	6	5	c18.jpg	4	1.503174	220
174.9	6	5	c2.jpg	5	3.13008	220
183.3	6	1	c9.jpg	1	2.673178	220
191.4	6	1	c15.jpg	4	1.90923	220
203.1	6	5	c19.jpg	4	1.188764	220
212.5	6	5	c6.jpg	5	1.658277	220
223.5	6	5	c16.jpg	4	4.150298	220
233.7	6	1	c5.jpg	5	1.22322	220
3	6	5	c8.jpg	2	2.313631	221
13.9	6	1	c14.jpg	1	3.953823	221
22	6	5	c18.jpg	4	2.739902	221
31.1	6	1	c9.jpg	4	2.48306	221
40.6	6	5	c1.jpg	5	1.946049	221
51.2	6	5	c2.jpg	3	3.236068	221
61.4	6	1	c7.jpg	4	2.73616	221
70.5	6	5	c17.jpg	6	2.529744	221
79.3	6	1	c20.jpg	2	2.258073	221
88	6	1	c12.jpg	2	3.880497	221
98.6	6	1	c22.jpg	3	3.435376	221
109.9	6	1	c23.jpg	1	1.823087	221
120.1	6	5	c6.jpg	7	2.36813	221
132.2	6	5	c19.jpg	6	1.908974	221
140.6	6	5	c11.jpg	6	3.035033	221
148.6	6	1	c4.jpg	5	3.888287	221
158.5	6	5	c10.jpg	6	2.657849	221
168.3	6	5	c21.jpg	6	3.968795	221
179.6	6	1	c3.jpg	1	1.848859	221
191.3	6	1	c15.jpg	5	2.39983	221
199.7	6	1	c24.jpg	3	2.093272	221
211.7	6	1	c5.jpg	1	1.518258	221
222.7	6	5	c13.jpg	1	2.107407	221
232.2	6	5	c16.jpg	4	2.415515	221
3.03	6	1	c11.jpg	2	3.102499	223
11.82	6	5	c24.jpg	4	2.147032	223
23.49	6	5	c20.jpg	2	1.700918	223
32.62	6	1	c16.jpg	1	0.9831785	223
42.12	6	5	c23.jpg	2	1.028727	223
54.16	6	1	c17.jpg	1	0.9306711	223
64.38	6	1	c21.jpg	1	2.47086	223
75.68	6	1	c19.jpg	1	1.127739	223
86.62	6	1	c8.jpg	1	0.9422693	223
98.66	6	5	c12.jpg	3	1.343762	223
108.15	6	5	c14.jpg	3	2.569578	223
119.09	6	5	c15.jpg	5	2.452564	223
130.39	6	5	c5.jpg	3	2.420447	223
138.43	6	5	c22.jpg	3	1.152767	223
148.28	6	5	c9.jpg	3	0.9299136	223
157.05	6	5	c3.jpg	3	1.272743	223
167.64	6	1	c10.jpg	1	0.9082835	223
176.04	6	1	c2.jpg	1	1.165076	223
186.63	6	1	c18.jpg	1	1.254888	223
195.76	6	1	c13.jpg	1	0.8754262	223
203.81	6	1	c1.jpg	1	1.669659	223
213.66	6	5	c4.jpg	3	1.055191	223
223.88	6	5	c7.jpg	3	1.713793	223
232.27	6	1	c6.jpg	1	1.171704	223
3	6	5	c6.jpg	6	1.967599	224
14	6	1	c15.jpg	2	2.261533	224
24.9	6	1	c22.jpg	1	1.773684	224
32.9	6	5	c18.jpg	3	1.915027	224
41.7	6	5	c21.jpg	4	1.659904	224
50.1	6	1	c14.jpg	2	1.712242	224
62.1	6	5	c2.jpg	5	1.736265	224
72	6	1	c24.jpg	2	1.200339	224
81.1	6	1	c12.jpg	3	1.518943	224
92.4	6	5	c16.jpg	3	1.444633	224
100.5	6	5	c1.jpg	2	2.299479	224
112.5	6	1	c3.jpg	1	1.576123	224
120.9	6	5	c11.jpg	6	2.162262	224
130.4	6	5	c17.jpg	5	1.801335	224
140.6	6	5	c19.jpg	3	1.559998	224
151.2	6	5	c13.jpg	6	1.974104	224
160.3	6	1	c7.jpg	2	1.503058	224
170.2	6	5	c8.jpg	6	1.58486	224
181.5	6	1	c9.jpg	2	1.075863	224
191	6	1	c20.jpg	2	1.089419	224
201.6	6	5	c10.jpg	3	1.455786	224
213.2	6	1	c23.jpg	3	1.460646	224
222	6	1	c4.jpg	3	1.004477	224
233.7	6	1	c5.jpg	2	1.784186	224
3	6	1	p2.jpg	5	2.564404	225
12.2	6	5	p24.jpg	6	1.876045	225
20.2	6	5	p5.jpg	6	1.52114	225
30.8	6	5	p20.jpg	1	1.422313	225
40	6	1	p14.jpg	1	2.118301	225
49.8	6	1	p6.jpg	1	2.167219	225
61.1	6	5	p17.jpg	6	3.702807	225
71.4	6	1	p3.jpg	1	2.199465	225
79.8	6	5	p16.jpg	5	2.579463	225
91.8	6	1	p4.jpg	1	2.162373	225
103.8	6	5	p19.jpg	7	4.352739	225
112.3	6	1	p9.jpg	1	1.748587	225
123.9	6	5	p12.jpg	5	2.812516	225
132.7	6	5	p18.jpg	6	2.186407	225
144.4	6	1	p7.jpg	1	2.220762	225
154.6	6	1	p13.jpg	1	1.319998	225
164.1	6	1	p23.jpg	1	1.680531	225
172.1	6	1	p8.jpg	1	1.244372	225
182.7	6	1	p10.jpg	1	1.170592	225
193.7	6	5	p1.jpg	7	1.198425	225
205	6	5	p15.jpg	5	2.471548	225
214.8	6	5	p21.jpg	3	3.196133	225
225.8	6	5	p22.jpg	5	4.687969	225
235.3	6	1	p11.jpg	2	2.552564	225
3	6	1	c2.jpg	2	1.332642	226
13.3	6	1	c19.jpg	4	1.0049	226
24.6	6	5	c14.jpg	4	0.8454122	226
33	6	5	c22.jpg	5	0.8541696	226
41	6	1	c11.jpg	6	0.9818848	226
50.5	6	1	c18.jpg	4	0.8125137	226
60.4	6	5	c4.jpg	4	0.8004754	226
70.9	6	1	c17.jpg	2	1.395236	226
81.9	6	1	c21.jpg	1	1.309696	226
92.5	6	5	c3.jpg	4	0.7269808	226
102	6	5	c12.jpg	4	0.9399714	226
113.7	6	5	c9.jpg	5	0.8156194	226
125.7	6	1	c10.jpg	7	0.9436769	226
134.5	6	1	c1.jpg	5	0.7526423	226
142.5	6	5	c7.jpg	4	0.486621	226
152.7	6	5	c23.jpg	6	0.4849261	226
163.7	6	1	c6.jpg	4	0.4157893	226
172.1	6	1	c13.jpg	2	0.5799047	226
181.2	6	5	c15.jpg	4	0.8889976	226
192.5	6	5	c5.jpg	3	0.5662445	226
201.6	6	1	c16.jpg	4	0.6923595	226
213.3	6	5	c24.jpg	5	1.086945	226
222.1	6	5	c20.jpg	4	1.180037	226
231.9	6	1	c8.jpg	5	1.280198	226
3.1	6	1	c16.jpg	1	1.364076	227
12.2	6	1	c19.jpg	2	1.946217	227
22.4	6	1	c8.jpg	1	2.032508	227
33	6	1	c11.jpg	1	2.313107	227
42.9	6	5	c20.jpg	6	2.296243	227
52	6	5	c3.jpg	4	2.751296	227
61.5	6	1	c18.jpg	1	2.479141	227
72.8	6	1	c1.jpg	1	3.413193	227
81.6	6	5	c9.jpg	1	1.718472	227
93.3	6	5	c22.jpg	4	2.345834	227
104.2	6	1	c13.jpg	2	2.376103	227
112.6	6	5	c23.jpg	4	3.061484	227
120.6	6	5	c24.jpg	6	1.426512	227
129	6	1	c17.jpg	1	1.667371	227
140.7	6	5	c7.jpg	2	2.159035	227
150.6	6	5	c5.jpg	6	1.577573	227
161.9	6	1	c2.jpg	1	1.640465	227
172.8	6	1	c21.jpg	5	1.829136	227
180.9	6	5	c4.jpg	5	2.919839	227
189.6	6	5	c12.jpg	2	1.947859	227
201.7	6	5	c15.jpg	6	1.757808	227
211.9	6	5	c14.jpg	5	1.486194	227
222.5	6	1	c6.jpg	2	2.245981	227
234.5	6	1	c10.jpg	1	1.666058	227
3.1	6	5	c13.jpg	5	3.79916	229
11.5	6	1	c12.jpg	3	2.586675	229
22.8	6	1	c4.jpg	4	2.405275	229
31.2	6	1	c20.jpg	3	1.345159	229
41.4	6	5	c19.jpg	5	3.084335	229
49.4	6	5	c6.jpg	4	2.855236	229
60.4	6	1	c7.jpg	3	2.828317	229
69.1	6	5	c17.jpg	4	2.050756	229
78.3	6	1	c22.jpg	4	4.103846	229
90.3	6	5	c2.jpg	4	1.849196	229
100.9	6	1	c24.jpg	2	3.268693	229
110	6	5	c8.jpg	5	2.991854	229
122.1	6	5	c21.jpg	6	1.792226	229
133.8	6	5	c1.jpg	4	2.571455	229
143.6	6	1	c9.jpg	3	1.285832	229
151.6	6	1	c15.jpg	2	2.86416	229
161.1	6	1	c3.jpg	3	3.404955	229
172.1	6	1	c23.jpg	1	3.572683	229
181.9	6	5	c11.jpg	4	2.87727	229
192.1	6	1	c5.jpg	1	2.436497	229
202.7	6	5	c18.jpg	6	2.575629	229
214	6	5	c16.jpg	5	3.532493	229
223.5	6	5	c10.jpg	5	2.784436	229
232.3	6	1	c14.jpg	3	3.298424	229