onset	duration	trial_type	response	response_time	stim	sub
3.1	6	1_inacc	3	4.737892	c8.jpg	103
14.8	6	5_inacc	4	4.977862	c7.jpg	103
25	6	1_inacc	4	4.719666	c13.jpg	103
34.9	6	1_inacc	1	3.878363	c17.jpg	103
43	6	1_inacc	1	4.374227	c16.jpg	103
54.4	6	5_acc	4	3.930759	c20.jpg	103
62.4	6	1_inacc	1	5.34469	c19.jpg	103
74.5	6	1_inacc	2	4.995637	c1.jpg	103
83.6	6	1_acc	2	5.998056	c21.jpg	103
92.1	6	5_acc	4	2.997983	c5.jpg	103
103.8	6	5_inacc	1	4.564913	c4.jpg	103
114.4	6	5_acc	2	2.828489	c3.jpg	103
125.4	6	1_miss	NA	NA	c18.jpg	103
135.6	6	1_inacc	2	4.056788	c6.jpg	103
146.6	6	1_inacc	1	4.322633	c11.jpg	103
156.2	6	5_inacc	3	4.569697	c15.jpg	103
165.3	6	5_inacc	2	4.933644	c14.jpg	103
174.1	6	5_acc	1	2.783697	c9.jpg	103
182.5	6	5_acc	3	2.306517	c12.jpg	103
192.1	6	1_inacc	4	3.83228	c10.jpg	103
202.7	6	1_acc	2	2.511829	c2.jpg	103
211.5	6	5_acc	4	1.468833	c22.jpg	103
221.4	6	5_miss	NA	NA	c23.jpg	103
233.4	6	5_acc	2	4.344443	c24.jpg	103
3.11	6	5_acc	1	2.981701	c11.jpg	107
14.88	6	5_acc	2	1.939763	c10.jpg	107
23.68	6	1_acc	4	3.40891	c4.jpg	107
33.56	6	5_inacc	1	4.026454	c13.jpg	107
44.55	6	5_acc	2	2.870075	c16.jpg	107
55.92	6	1_inacc	2	3.536462	c15.jpg	107
65.44	6	1_inacc	1	3.684353	c20.jpg	107
73.5	6	5_inacc	3	4.049339	c21.jpg	107
85.59	6	1_acc	2	3.752675	c7.jpg	107
96.59	6	5_acc	3	4.24723	c18.jpg	107
107.2	6	1_inacc	1	3.969418	c12.jpg	107
116.01	6	1_acc	2	2.191159	c9.jpg	107
124.45	6	5_acc	2	4.06891	c17.jpg	107
134.7	6	1_inacc	2	3.58E-04	c24.jpg	107
146.8	6	1_inacc	2	4.086241	c14.jpg	107
158.14	6	1_inacc	4	2.275412	c22.jpg	107
168.39	6	5_inacc	1	3.196798	c2.jpg	107
177.91	6	1_acc	4	3.123947	c5.jpg	107
189.62	6	1_inacc	4	2.222958	c3.jpg	107
200.24	6	5_inacc	3	3.369482	c19.jpg	107
210.14	6	5_inacc	4	4.200557	c8.jpg	107
219.29	6	5_acc	4	4.396056	c6.jpg	107
227.72	6	1_inacc	3	2.728141	c23.jpg	107
236.9	6	5_inacc	1	2.707979	c1.jpg	107
3.1	6	1_inacc	3	3.699037	c11.jpg	110
11.93	6	1_acc	3	1.733382	c17.jpg	110
21.5	6	5_acc	2	3.927339	c12.jpg	110
29.62	6	5_inacc	3	4.166887	c23.jpg	110
40.99	6	1_inacc	4	3.379098	c10.jpg	110
51.62	6	1_inacc	2	4.187227	c2.jpg	110
63.7	6	1_acc	2	1.258615	c13.jpg	110
75.45	6	1_inacc	4	4.603952	c19.jpg	110
83.57	6	5_acc	1	4.373125	c3.jpg	110
93.46	6	5_inacc	2	4.343795	c5.jpg	110
105.16	6	1_inacc	2	2.717504	c21.jpg	110
113.63	6	1_acc	2	4.898699	c6.jpg	110
123.52	6	5_acc	1	4.881863	c15.jpg	110
133.04	6	5_inacc	3	4.260618	c24.jpg	110
141.87	6	5_inacc	4	3.967121	c7.jpg	110
152.48	6	5_acc	2	5.35973	c14.jpg	110
162.73	6	1_inacc	1	4.532146	c1.jpg	110
172.97	6	5_acc	4	4.008643	c4.jpg	110
183.99	6	1_acc	1	3.071642	c8.jpg	110
193.2	6	5_acc	1	3.732705	c9.jpg	110
202.37	6	1_inacc	2	4.620075	c16.jpg	110
213.72	6	1_acc	1	2.573021	c18.jpg	110
224.68	6	5_acc	1	3.269851	c22.jpg	110
236.75	6	5_inacc	1	4.532961	c20.jpg	110
3.105	6	1_acc	1	1.838555	c23.jpg	112
12.684	6	1_acc	2	3.726772	c4.jpg	112
23.332	6	1_acc	3	1.862964	c24.jpg	112
33.217	6	5_acc	4	2.81903	c8.jpg	112
44.227	6	5_acc	1	1.487813	c18.jpg	112
53.736	6	1_acc	1	1.76076	c20.jpg	112
65.435	6	1_acc	4	4.365719	c12.jpg	112
73.9	6	1_acc	2	3.196009	c3.jpg	112
83.075	6	5_acc	1	3.210733	c6.jpg	112
94.434	6	5_acc	1	2.781044	c17.jpg	112
106.154	6	5_acc	3	3.322788	c10.jpg	112
116.035	6	5_acc	4	3.533669	c11.jpg	112
126.65	6	5_acc	4	2.135452	c16.jpg	112
135.447	6	1_acc	2	4.267855	c15.jpg	112
147.549	6	5_acc	4	4.030089	c1.jpg	112
156.724	6	1_acc	3	2.80878	c14.jpg	112
167.732	6	5_acc	4	3.987861	c2.jpg	112
175.828	6	5_acc	2	3.15598	c21.jpg	112
187.906	6	1_inacc	1	3.960322	c5.jpg	112
195.97	6	1_inacc	4	4.8804	c9.jpg	112
206.213	6	1_acc	4	3.175972	c7.jpg	112
217.56	6	1_acc	2	1.843971	c22.jpg	112
226.35	6	5_acc	3	1.789346	c13.jpg	112
234.781	6	5_acc	3	1.478672	c19.jpg	112
3.07	6	5_acc	3	2.195328	c16.jpg	113
12.26	6	1_acc	2	2.18575	c4.jpg	113
20.33	6	5_acc	4	1.359203	c18.jpg	113
28.76	6	1_inacc	2	3.507458	c7.jpg	113
40.83	6	1_acc	1	2.116121	c9.jpg	113
50	6	5_inacc	4	2.946044	c8.jpg	113
60.25	6	1_acc	1	3.32668	c12.jpg	113
71.22	6	5_acc	3	1.571855	c21.jpg	113
83.3	6	5_acc	2	2.588584	c17.jpg	113
92.84	6	1_acc	4	2.354173	c14.jpg	113
101.27	6	1_acc	3	3.327637	c22.jpg	113
110.79	6	1_acc	2	1.759311	c15.jpg	113
121.05	6	1_acc	2	1.717426	c3.jpg	113
131.66	6	5_acc	2	1.547855	c6.jpg	113
141.55	6	5_acc	4	3.641587	c13.jpg	113
152.17	6	1_acc	1	1.732125	c24.jpg	113
163.89	6	5_inacc	3	3.487457	c10.jpg	113
172.69	6	1_inacc	2	2.4153	c20.jpg	113
181.49	6	1_acc	3	3.701664	c23.jpg	113
192.85	6	5_inacc	1	3.616998	c2.jpg	113
200.93	6	5_inacc	1	3.773105	c19.jpg	113
212.64	6	1_inacc	2	4.220367	c5.jpg	113
222.54	6	5_acc	3	3.221411	c1.jpg	113
233.88	6	5_inacc	2	3.74183	c11.jpg	113
3.087	6	5_acc	1	2.392081	c1.jpg	116
13.352	6	5_acc	3	1.406083	c8.jpg	116
24.346	6	5_inacc	1	3.346348	c13.jpg	116
33.154	6	1_acc	1	2.152099	c15.jpg	116
41.596	6	1_inacc	2	3.078721	c24.jpg	116
52.575	6	5_inacc	1	3.610292	c11.jpg	116
63.187	6	1_inacc	3	4.08011	c14.jpg	116
72.73	6	5_acc	4	3.075757	c17.jpg	116
81.179	6	1_acc	1	4.328818	c5.jpg	116
89.982	6	5_acc	1	3.063868	c10.jpg	116
101.704	6	1_acc	3	2.525592	c3.jpg	116
110.856	6	5_acc	2	2.285663	c21.jpg	116
120.012	6	5_acc	3	2.137067	c18.jpg	116
129.56	6	1_inacc	1	4.452079	c4.jpg	116
141.265	6	5_acc	3	3.930834	c16.jpg	116
153.339	6	1_acc	2	5.261639	c9.jpg	116
164.693	6	5_acc	1	4.161036	c6.jpg	116
172.778	6	1_acc	3	4.457108	c20.jpg	116
182.679	6	1_acc	2	4.108706	c22.jpg	116
194.754	6	1_acc	2	5.552302	c12.jpg	116
204.999	6	1_inacc	3	3.809618	c7.jpg	116
215.624	6	5_inacc	4	5.342321	c2.jpg	116
225.514	6	5_inacc	1	3.952884	c19.jpg	116
236.864	6	1_inacc	4	4.496659	c23.jpg	116
3.06	6	5_acc	2	3.841913	c12.jpg	120
11.53	6	5_acc	3	1.883574	c23.jpg	120
22.51	6	5_acc	2	1.416662	c22.jpg	120
30.58	6	5_acc	3	4.291234	c14.jpg	120
41.92	6	1_acc	2	1.786315	c21.jpg	120
52.17	6	5_acc	1	3.920126	c5.jpg	120
64.23	6	1_acc	4	1.765462	c17.jpg	120
75.58	6	1_acc	4	4.20101	c8.jpg	120
86.56	6	5_acc	2	1.673356	c15.jpg	120
98.28	6	5_acc	3	4.195548	c24.jpg	120
107.43	6	5_miss	NA	NA	c4.jpg	120
117.33	6	5_acc	3	2.711847	c3.jpg	120
126.85	6	1_acc	3	4.741443	c11.jpg	120
134.93	6	1_acc	3	2.205479	c18.jpg	120
145.57	6	5_inacc	1	3.754726	c7.jpg	120
156.19	6	5_acc	3	1.91307	c20.jpg	120
164.99	6	1_acc	3	4.948409	c6.jpg	120
174.52	6	1_miss	NA	NA	c1.jpg	120
183.32	6	1_acc	2	1.805221	c16.jpg	120
195.03	6	1_acc	2	3.443376	c10.jpg	120
203.46	6	5_inacc	1	4.301599	c9.jpg	120
213.72	6	1_acc	4	5.97661	c2.jpg	120
225.8	6	1_acc	3	2.150427	c13.jpg	120
234.96	6	1_inacc	1	4.535323	c19.jpg	120
3.1	6	1_inacc	2	2.536478	c13.jpg	123
14.8	6	1_inacc	3	2.943569	c1.jpg	123
25.1	6	5_acc	4	2.016193	c4.jpg	123
35.3	6	5_inacc	3	1.654444	c7.jpg	123
45.9	6	1_inacc	2	2.645375	c18.jpg	123
54	6	5_inacc	3	2.183424	c23.jpg	123
66.1	6	5_inacc	2	1.598231	c20.jpg	123
77.1	6	1_inacc	4	1.798712	c10.jpg	123
85.5	6	1_inacc	3	1.680646	c2.jpg	123
96.8	6	5_inacc	2	1.325687	c12.jpg	123
106	6	1_inacc	3	1.233044	c16.jpg	123
116.9	6	1_acc	2	1.81343	c6.jpg	123
126.5	6	5_inacc	1	3.0316	c22.jpg	123
137.8	6	5_inacc	2	3.90579	c3.jpg	123
147.3	6	5_inacc	3	1.068417	c9.jpg	123
156.1	6	1_inacc	3	1.216144	c17.jpg	123
168.2	6	1_acc	2	2.254416	c8.jpg	123
178.8	6	1_inacc	3	1.437035	c19.jpg	123
187.9	6	5_inacc	3	1.778825	c14.jpg	123
196.4	6	5_inacc	4	2.23202	c5.jpg	123
208.1	6	1_acc	4	2.736456	c11.jpg	123
216.9	6	5_inacc	1	1.380479	c15.jpg	123
225	6	5_acc	3	2.745037	c24.jpg	123
234.8	6	1_acc	2	1.442212	c21.jpg	123
3.1	6	5_acc	4	1.947912	c18.jpg	124
11.9	6	1_acc	1	2.370244	c12.jpg	124
21.8	6	5_acc	3	2.551747	c10.jpg	124
33.5	6	5_inacc	2	3.85852	c11.jpg	124
43.1	6	5_inacc	2	3.082383	c2.jpg	124
54.1	6	1_inacc	3	3.017145	c3.jpg	124
63.6	6	5_acc	2	1.371018	c17.jpg	124
74.9	6	1_acc	3	3.119492	c14.jpg	124
84.1	6	5_acc	4	1.119247	c6.jpg	124
94	6	5_inacc	3	4.272214	c1.jpg	124
106	6	5_acc	3	3.227729	c16.jpg	124
114.1	6	1_acc	1	4.088999	c15.jpg	124
122.5	6	1_inacc	1	2.711489	c9.jpg	124
134.6	6	5_acc	4	2.712921	c13.jpg	124
143	6	5_acc	4	1.383252	c21.jpg	124
153.3	6	1_inacc	4	2.642677	c20.jpg	124
163.5	6	1_acc	1	4.414784	c23.jpg	124
172.3	6	1_inacc	3	3.244122	c24.jpg	124
180.4	6	1_inacc	1	2.914348	c4.jpg	124
191.7	6	5_acc	2	2.922403	c19.jpg	124
200.8	6	1_acc	1	2.895781	c7.jpg	124
211.8	6	5_inacc	4	3.743232	c8.jpg	124
222.4	6	1_acc	4	3.473451	c22.jpg	124
234.1	6	1_acc	1	3.211749	c5.jpg	124
3	6	5_inacc	3	3.07624	c11.jpg	126
13.7	6	1_inacc	2	2.507753	c4.jpg	126
22.5	6	1_inacc	3	2.719276	c3.jpg	126
34.6	6	5_acc	4	3.088221	c18.jpg	126
43.4	6	1_inacc	3	3.118197	c12.jpg	126
55.1	6	5_inacc	2	3.144209	c17.jpg	126
64.6	6	1_inacc	1	4.536234	c22.jpg	126
74.5	6	5_acc	2	1.999052	c6.jpg	126
82.6	6	5_acc	3	2.12839	c2.jpg	126
93.6	6	1_inacc	3	3.886481	c20.jpg	126
102.7	6	5_inacc	2	2.669695	c21.jpg	126
114.8	6	1_acc	2	2.606583	c5.jpg	126
125.4	6	1_inacc	4	3.477197	c23.jpg	126
136.4	6	1_inacc	2	3.254451	c14.jpg	126
147.7	6	1_acc	3	2.461415	c15.jpg	126
155.8	6	5_inacc	1	3.336906	c16.jpg	126
166.1	6	5_inacc	3	1.899485	c13.jpg	126
177.8	6	5_acc	2	2.004674	c1.jpg	126
186.2	6	5_inacc	4	3.282324	c8.jpg	126
196.1	6	1_inacc	3	2.335524	c24.jpg	126
205.6	6	5_acc	2	3.884064	c10.jpg	126
214.8	6	1_inacc	1	3.224062	c7.jpg	126
223.2	6	5_acc	1	2.642735	c19.jpg	126
234.5	6	1_inacc	1	2.454509	c9.jpg	126
3.1	6	5_miss	NA	NA	c4.jpg	128
13.7	6	5_miss	NA	NA	c15.jpg	128
24	6	1_inacc	2	3.567225	c2.jpg	128
35.3	6	5_inacc	3	3.401956	c3.jpg	128
46.7	6	1_acc	1	2.116896	c13.jpg	128
57.7	6	1_acc	2	2.628698	c19.jpg	128
67.2	6	5_inacc	3	3.464809	c23.jpg	128
76.7	6	5_miss	NA	NA	c24.jpg	128
85.9	6	1_inacc	4	3.53166	c10.jpg	128
94.7	6	1_inacc	3	2.65618	c16.jpg	128
103.1	6	1_inacc	4	3.349089	c21.jpg	128
113.3	6	1_inacc	2	1.980459	c17.jpg	128
123.2	6	5_inacc	1	3.357484	c22.jpg	128
134.9	6	5_acc	4	2.464402	c7.jpg	128
143	6	5_acc	3	3.409824	c12.jpg	128
152.9	6	1_inacc	3	3.036695	c6.jpg	128
162.1	6	5_inacc	3	3.169234	c5.jpg	128
170.5	6	5_acc	4	3.540382	c9.jpg	128
181.5	6	1_inacc	3	3.369107	c1.jpg	128
192.1	6	1_miss	NA	NA	c8.jpg	128
200.2	6	1_inacc	2	2.011552	c11.jpg	128
212.2	6	5_inacc	4	2.698569	c14.jpg	128
221	6	1_inacc	4	4.400298	c18.jpg	128
232.7	6	5_acc	4	4.676815	c20.jpg	128
3.09	6	5_inacc	4	3.965272	c22.jpg	131
12.65	6	5_acc	3	4.246406	c12.jpg	131
24.736	6	5_miss	NA	NA	c9.jpg	131
33.546	6	1_acc	2	4.128124	c6.jpg	131
42.369	6	5_inacc	3	4.068974	c4.jpg	131
52.262	6	1_acc	3	3.675126	c16.jpg	131
60.349	6	5_acc	2	2.716763	c20.jpg	131
68.414	6	5_inacc	2	3.324077	c14.jpg	131
79.036	6	1_inacc	1	5.149683	c13.jpg	131
91.132	6	1_inacc	4	3.669971	c8.jpg	131
101.749	6	1_inacc	4	4.412392	c11.jpg	131
111.642	6	1_acc	3	4.704096	c17.jpg	131
120.105	6	5_acc	3	3.005244	c7.jpg	131
131.832	6	1_inacc	4	2.386595	c19.jpg	131
143.528	6	5_acc	1	4.027901	c15.jpg	131
151.952	6	5_inacc	3	4.563141	c23.jpg	131
161.127	6	1_acc	3	1.801945	c2.jpg	131
172.496	6	1_miss	NA	NA	c10.jpg	131
182.014	6	1_inacc	1	2.774861	c21.jpg	131
192.985	6	1_inacc	3	4.004528	c18.jpg	131
202.155	6	5_acc	1	3.664914	c24.jpg	131
212.409	6	5_acc	2	3.765681	c3.jpg	131
223.755	6	1_inacc	4	3.231369	c1.jpg	131
234.004	6	5_inacc	1	2.429451	c5.jpg	131
3.086	6	5_acc	1	4.493654	c21.jpg	136
12.645	6	5_inacc	3	4.228096	c1.jpg	136
24.352	6	1_acc	1	4.169157	c24.jpg	136
35.761	6	1_acc	4	2.492223	c3.jpg	136
44.931	6	1_inacc	2	3.96675	c23.jpg	136
56.639	6	5_acc	1	4.490063	c11.jpg	136
67.247	6	5_acc	3	3.992811	c13.jpg	136
78.598	6	1_acc	1	2.683009	c7.jpg	136
88.508	6	1_inacc	2	3.09247	c15.jpg	136
98.777	6	5_acc	2	3.1516	c8.jpg	136
109.771	6	5_acc	4	2.852858	c18.jpg	136
117.85	6	5_acc	1	1.349676	c17.jpg	136
127.729	6	1_inacc	4	3.933101	c22.jpg	136
138.699	6	1_inacc	1	3.913107	c9.jpg	136
148.225	6	1_acc	2	2.634345	c14.jpg	136
160.292	6	5_acc	2	3.40298	c16.jpg	136
169.47	6	1_acc	4	2.799357	c4.jpg	136
180.085	6	1_inacc	1	3.594057	c20.jpg	136
188.146	6	5_acc	3	2.725177	c10.jpg	136
196.947	6	5_acc	2	3.211812	c19.jpg	136
205.377	6	1_inacc	4	3.33333	c12.jpg	136
213.806	6	5_inacc	3	4.52425	c2.jpg	136
224.069	6	5_acc	1	1.304594	c6.jpg	136
236.143	6	1_acc	1	2.048063	c5.jpg	136
3.07	6	5_inacc	2	2.324278	c12.jpg	142
11.19	6	1_acc	3	2.1889	c16.jpg	142
19.65	6	1_inacc	4	1.794143	c10.jpg	142
29.57	6	1_inacc	2	2.393961	c2.jpg	142
37.64	6	5_inacc	1	3.036621	c22.jpg	142
48.99	6	5_acc	3	3.390774	c24.jpg	142
60.71	6	5_acc	4	3.221301	c23.jpg	142
69.52	6	1_inacc	3	3.350623	c18.jpg	142
78.69	6	1_inacc	2	2.507243	c13.jpg	142
89.7	6	5_acc	3	3.382976	c3.jpg	142
99.59	6	1_acc	3	3.700068	c1.jpg	142
110.19	6	5_acc	2	4.148295	c4.jpg	142
120.8	6	1_inacc	3	3.34499	c11.jpg	142
129.6	6	5_acc	4	1.68044	c9.jpg	142
139.84	6	1_inacc	2	3.081354	c21.jpg	142
151.9	6	1_inacc	2	3.754608	c6.jpg	142
163.62	6	5_acc	2	2.397732	c15.jpg	142
172.79	6	1_inacc	2	3.63166	c19.jpg	142
184.14	6	5_inacc	2	2.205312	c14.jpg	142
196.21	6	5_inacc	4	2.494236	c20.jpg	142
204.64	6	5_inacc	2	3.42601	c7.jpg	142
215.6	6	1_inacc	3	2.862425	c17.jpg	142
225.12	6	1_inacc	2	2.84644	c8.jpg	142
235.37	6	5_inacc	3	3.274344	c5.jpg	142
3.1	6	1_inacc	1	3.707766	c22.jpg	144
14.5	6	1_inacc	2	3.501803	c5.jpg	144
25.5	6	1_inacc	3	2.622021	c12.jpg	144
37.6	6	1_inacc	2	2.932459	c9.jpg	144
47.1	6	1_inacc	3	2.663712	c7.jpg	144
55.2	6	5_acc	4	4.600647	c1.jpg	144
66.2	6	1_miss	NA	NA	c14.jpg	144
77.9	6	1_acc	3	3.075366	c15.jpg	144
88.2	6	5_acc	3	2.490789	c16.jpg	144
98.1	6	5_acc	4	3.057986	c8.jpg	144
108.3	6	1_inacc	4	3.5104	c4.jpg	144
118.2	6	5_inacc	3	1.806126	c11.jpg	144
128.9	6	5_inacc	1	2.403622	c2.jpg	144
137.3	6	5_inacc	2	2.603264	c10.jpg	144
148.6	6	5_inacc	4	2.049347	c19.jpg	144
160.7	6	5_acc	4	4.445771	c6.jpg	144
168.8	6	5_acc	2	4.060192	c13.jpg	144
177.9	6	5_inacc	1	4.811448	c18.jpg	144
189.7	6	5_inacc	4	2.715867	c21.jpg	144
199.2	6	1_inacc	1	2.868933	c20.jpg	144
208	6	1_acc	2	1.64343	c23.jpg	144
217.1	6	1_acc	3	1.732721	c24.jpg	144
225.5	6	5_inacc	1	2.325608	c17.jpg	144
234.4	6	1_inacc	4	2.836624	c3.jpg	144
3.086	6	5_inacc	1	1.988441	c2.jpg	149
13.747	6	1_inacc	1	1.98235	c15.jpg	149
22.931	6	1_inacc	2	2.149164	c14.jpg	149
33.562	6	5_acc	1	2.266186	c13.jpg	149
44.928	6	1_acc	1	2.508535	c20.jpg	149
57.007	6	5_inacc	2	2.077399	c6.jpg	149
66.528	6	1_inacc	2	2.837186	c24.jpg	149
77.885	6	1_inacc	4	3.63058	c12.jpg	149
86.695	6	1_inacc	4	3.307795	c5.jpg	149
96.214	6	5_inacc	4	3.364472	c10.jpg	149
104.645	6	1_inacc	4	3.843751	c23.jpg	149
115.631	6	1_inacc	2	2.346552	c3.jpg	149
127.356	6	5_inacc	2	2.863678	c17.jpg	149
139.423	6	5_inacc	1	5.879774	c8.jpg	149
149.662	6	1_inacc	1	1.560021	c4.jpg	149
159.929	6	5_acc	3	2.672615	c11.jpg	149
169.097	6	1_inacc	4	4.228377	c9.jpg	149
177.163	6	5_inacc	1	4.166366	c18.jpg	149
188.874	6	1_acc	2	5.134235	c22.jpg	149
197.299	6	5_inacc	3	3.339362	c21.jpg	149
208.274	6	5_inacc	4	3.380439	c19.jpg	149
218.166	6	5_inacc	2	5.798065	c1.jpg	149
226.227	6	1_inacc	1	3.55424	c7.jpg	149
236.114	6	5_acc	2	2.618141	c16.jpg	149
3.08	6	1_acc	3	2.20052	c8.jpg	152
14.48	6	1_inacc	2	1.342252	c17.jpg	152
22.57	6	5_inacc	3	2.196705	c15.jpg	152
33.2	6	1_inacc	3	2.366772	c16.jpg	152
43.46	6	5_acc	2	2.216917	c12.jpg	152
54.45	6	5_inacc	4	2.672663	c22.jpg	152
64.34	6	5_acc	2	3.328796	c24.jpg	152
74.59	6	5_inacc	2	1.562086	c14.jpg	152
85.93	6	5_acc	3	1.370465	c20.jpg	152
94.01	6	1_inacc	2	1.474269	c13.jpg	152
104.65	6	1_acc	2	1.720276	c18.jpg	152
113.1	6	5_inacc	2	3.500581	c3.jpg	152
124.8	6	1_acc	1	2.806233	c6.jpg	152
134.32	6	5_inacc	2	1.993673	c5.jpg	152
142.75	6	5_inacc	4	1.24014	c7.jpg	152
152.26	6	1_inacc	2	3.802205	c19.jpg	152
161.42	6	5_inacc	1	2.56475	c9.jpg	152
173.5	6	1_inacc	4	1.645494	c10.jpg	152
185.56	6	5_inacc	3	2.387375	c4.jpg	152
194.36	6	5_inacc	4	2.631014	c23.jpg	152
203.53	6	1_inacc	3	1.169414	c11.jpg	152
212.34	6	1_inacc	3	2.83899	c2.jpg	152
224.04	6	1_inacc	2	0.8525573	c21.jpg	152
233.94	6	1_inacc	3	2.28998	c1.jpg	152
3.06	6	1_inacc	1	0.3890294	c5.jpg	154
13.33	6	1_acc	1	0.3662034	c22.jpg	154
22.12	6	1_inacc	3	0.5606094	c7.jpg	154
32.74	6	1_acc	1	5.27E-04	c9.jpg	154
42.64	6	5_inacc	2	8.80E-04	c2.jpg	154
50.72	6	5_acc	2	2.758862	c11.jpg	154
60.23	6	1_inacc	1	4.40E-04	c4.jpg	154
68.66	6	5_inacc	2	0.2202589	c6.jpg	154
77.83	6	1_inacc	3	3.97E-04	c3.jpg	154
87.35	6	1_acc	4	9.55E-04	c24.jpg	154
98.32	6	5_inacc	1	4.50E-04	c17.jpg	154
109.29	6	5_inacc	2	4.06E-04	c16.jpg	154
121.36	6	5_acc	3	0.06626227	c13.jpg	154
131.97	6	5_inacc	4	0.1891048	c10.jpg	154
141.85	6	1_inacc	2	3.61E-04	c15.jpg	154
153.55	6	1_inacc	3	4.35E-04	c23.jpg	154
161.62	6	5_acc	4	1.004678	c8.jpg	154
171.88	6	1_inacc	4	7.25E-04	c12.jpg	154
183.94	6	1_acc	4	4.01E-04	c20.jpg	154
195.29	6	5_inacc	1	4.43E-04	c1.jpg	154
204.08	6	1_inacc	2	4.31E-04	c14.jpg	154
213.25	6	5_inacc	3	7.01E-04	c18.jpg	154
224.94	6	5_inacc	4	0.1054189	c21.jpg	154
236.27	6	5_acc	2	3.75E-04	c19.jpg	154
3.06	6	5_acc	4	3.256944	c24.jpg	157
11.87	6	5_acc	4	3.193387	c22.jpg	157
21.03	6	1_inacc	2	2.530807	c6.jpg	157
31.27	6	5_acc	3	2.90881	c4.jpg	157
43.33	6	5_acc	1	1.985171	c14.jpg	157
55.03	6	1_inacc	4	3.522434	c13.jpg	157
66.36	6	1_inacc	3	2.676843	c8.jpg	157
77.33	6	1_acc	3	2.872773	c21.jpg	157
87.21	6	1_acc	4	3.147912	c16.jpg	157
95.28	6	5_acc	4	2.464987	c3.jpg	157
105.15	6	5_acc	3	2.524709	c15.jpg	157
115.39	6	1_acc	4	2.60001	c19.jpg	157
123.81	6	5_acc	2	1.599079	c12.jpg	157
131.88	6	1_inacc	2	2.21479	c10.jpg	157
140.69	6	1_inacc	1	2.340532	c17.jpg	157
149.86	6	5_acc	3	3.248713	c5.jpg	157
161.2	6	1_inacc	4	2.20355	c2.jpg	157
171.81	6	5_acc	2	5.386821	c9.jpg	157
180.25	6	1_inacc	3	1.667111	c1.jpg	157
189.78	6	5_inacc	3	3.664464	c7.jpg	157
200.39	6	1_acc	4	1.426097	c18.jpg	157
212.09	6	5_acc	3	1.321353	c23.jpg	157
223.05	6	5_acc	1	4.287518	c20.jpg	157
232.57	6	1_inacc	3	2.295281	c11.jpg	157
3	6	1_acc	3	1.518171	c12.jpg	162
14	6	5_acc	2	2.002943	c10.jpg	162
22.5	6	5_acc	3	2.459651	c18.jpg	162
32.7	6	1_inacc	1	3.048642	c23.jpg	162
41.2	6	1_inacc	3	2.762156	c7.jpg	162
52.9	6	1_inacc	3	4.00208	c15.jpg	162
64.2	6	1_inacc	4	4.023576	c3.jpg	162
72.3	6	1_acc	2	4.097179	c14.jpg	162
84.4	6	5_acc	2	2.695244	c2.jpg	162
93.9	6	1_acc	1	3.709968	c9.jpg	162
104.5	6	5_acc	3	3.783127	c11.jpg	162
114.4	6	1_inacc	3	5.082015	c24.jpg	162
124.6	6	5_acc	4	2.398078	c21.jpg	162
136.7	6	5_acc	3	4.151364	c1.jpg	162
148	6	5_acc	1	1.482917	c8.jpg	162
159.7	6	1_acc	2	5.554951	c20.jpg	162
168.5	6	5_acc	2	4.935099	c19.jpg	162
177.3	6	5_acc	2	1.698321	c6.jpg	162
187.9	6	1_inacc	2	3.384396	c4.jpg	162
197.1	6	1_inacc	2	5.134933	c5.jpg	162
206.6	6	1_acc	1	4.182801	c22.jpg	162
216.5	6	5_inacc	2	4.571666	c13.jpg	162
225.6	6	5_acc	2	1.32761	c16.jpg	162
236.6	6	5_inacc	4	4.524995	c17.jpg	162
3.11	6	1_acc	3	2.736475	c18.jpg	163
11.94	6	5_acc	3	1.450738	c15.jpg	163
21.48	6	5_acc	3	1.881546	c9.jpg	163
33.19	6	1_acc	4	3.18704	c11.jpg	163
44.56	6	1_acc	3	4.371851	c1.jpg	163
55.54	6	1_acc	3	2.206142	c19.jpg	163
65.81	6	5_acc	3	1.650169	c24.jpg	163
76.8	6	5_acc	2	1.484508	c5.jpg	163
85.98	6	5_acc	4	1.737691	c7.jpg	163
94.8	6	5_acc	1	3.187878	c23.jpg	163
106.13	6	1_acc	1	2.893698	c6.jpg	163
118.19	6	1_acc	2	1.340071	c21.jpg	163
126.25	6	5_acc	3	2.052872	c20.jpg	163
138.32	6	5_acc	1	1.556303	c22.jpg	163
146.75	6	1_acc	3	1.886462	c16.jpg	163
155.91	6	1_inacc	1	3.431252	c8.jpg	163
167.61	6	1_acc	3	1.424057	c13.jpg	163
176.04	6	5_acc	4	1.570904	c12.jpg	163
186.69	6	5_acc	1	2.188977	c4.jpg	163
196.62	6	1_acc	4	1.598862	c17.jpg	163
206.5	6	5_acc	2	2.194976	c14.jpg	163
216.75	6	5_acc	3	1.372135	c3.jpg	163
224.82	6	1_acc	3	4.095068	c10.jpg	163
235.44	6	1_acc	1	2.207525	c2.jpg	163
3.1	6	1_inacc	3	4.963844	c24.jpg	165
13	6	5_acc	4	3.435094	c13.jpg	165
22.6	6	1_inacc	4	2.619946	c15.jpg	165
32.8	6	1_inacc	2	4.06717	c4.jpg	165
40.9	6	5_acc	2	2.488942	c21.jpg	165
53	6	5_acc	2	3.181737	c11.jpg	165
62.9	6	5_acc	4	3.622947	c1.jpg	165
73.5	6	5_acc	3	2.852443	c19.jpg	165
85.2	6	1_inacc	4	3.132481	c22.jpg	165
95.9	6	5_acc	1	3.16678	c6.jpg	165
106.1	6	1_acc	4	2.791696	c3.jpg	165
117.5	6	5_inacc	2	4.319118	c10.jpg	165
125.6	6	5_acc	1	4.205024	c2.jpg	165
134.7	6	5_acc	4	2.239687	c8.jpg	165
145.7	6	1_inacc	1	4.441152	c7.jpg	165
155.3	6	5_acc	1	3.642231	c16.jpg	165
164.1	6	1_inacc	2	4.895943	c12.jpg	165
173.2	6	1_acc	3	2.795455	c9.jpg	165
185.3	6	1_inacc	4	3.221416	c20.jpg	165
193.7	6	1_acc	1	3.404776	c14.jpg	165
204.7	6	5_acc	2	3.27142	c18.jpg	165
213.1	6	5_acc	4	1.503236	c17.jpg	165
224.5	6	1_inacc	2	3.073166	c23.jpg	165
236.2	6	1_inacc	1	2.898526	c5.jpg	165
3.1	6	1_acc	3	3.534826	c20.jpg	166
13.8	6	1_acc	3	3.895109	c7.jpg	166
22.6	6	5_acc	2	2.807981	c1.jpg	166
33.9	6	5_acc	1	1.936584	c13.jpg	166
44.6	6	5_acc	4	2.049048	c6.jpg	166
52.6	6	1_inacc	1	2.572982	c3.jpg	166
64	6	1_inacc	1	3.238617	c15.jpg	166
74.3	6	5_acc	4	4.152321	c2.jpg	166
85.3	6	1_inacc	2	4.617559	c4.jpg	166
93.3	6	5_acc	2	2.472242	c18.jpg	166
102.9	6	1_acc	2	5.335225	c12.jpg	166
113.9	6	5_acc	3	5.642205	c8.jpg	166
124.1	6	1_acc	4	3.287278	c22.jpg	166
133.3	6	5_inacc	3	4.739674	c11.jpg	166
145	6	5_inacc	1	2.173174	c17.jpg	166
157.1	6	1_inacc	3	3.355743	c14.jpg	166
165.5	6	5_inacc	2	3.461421	c19.jpg	166
174.7	6	1_inacc	3	3.795355	c9.jpg	166
184.2	6	5_acc	2	3.195361	c10.jpg	166
194.1	6	1_acc	2	7.23E-04	c5.jpg	166
206.2	6	5_acc	1	4.120726	c21.jpg	166
214.6	6	5_acc	1	4.414088	c16.jpg	166
223.4	6	1_inacc	2	1.985991	c24.jpg	166
235.1	6	1_inacc	3	2.532736	c23.jpg	166
3.1	6	1_acc	2	3.244432	c7.jpg	173
11.1	6	5_acc	1	1.671549	c8.jpg	173
20.7	6	5_acc	3	4.85386	c17.jpg	173
31.7	6	5_inacc	3	3.244968	c11.jpg	173
43	6	5_inacc	2	2.308253	c10.jpg	173
52.9	6	1_inacc	4	2.660615	c5.jpg	173
64.2	6	1_inacc	3	5.540017	c9.jpg	173
76.3	6	5_inacc	2	3.777284	c1.jpg	173
84.4	6	1_acc	2	2.748125	c24.jpg	173
92.8	6	1_inacc	2	3.744272	c15.jpg	173
102.7	6	5_acc	2	1.861223	c13.jpg	173
114.4	6	1_acc	1	2.850883	c12.jpg	173
123.2	6	1_acc	1	2.670049	c3.jpg	173
133.5	6	1_inacc	3	3.163336	c22.jpg	173
143	6	5_acc	2	1.612711	c18.jpg	173
151.4	6	5_acc	1	2.993815	c16.jpg	173
160.2	6	1_inacc	1	4.20733	c4.jpg	173
171.9	6	1_inacc	3	3.169551	c14.jpg	173
181.1	6	5_acc	2	1.183069	c21.jpg	173
193.2	6	1_acc	1	5.919986	c20.jpg	173
204.1	6	5_acc	4	3.205054	c2.jpg	173
214.8	6	1_acc	4	3.848677	c23.jpg	173
225.4	6	5_acc	4	2.04956	c19.jpg	173
235.6	6	5_acc	3	3.751582	c6.jpg	173
3.09	6	1_inacc	3	2.630099	c2.jpg	175
13	6	5_acc	4	2.194597	c12.jpg	175
24.72	6	5_acc	4	2.303216	c22.jpg	175
36.09	6	5_acc	2	2.555273	c9.jpg	175
45.61	6	1_acc	1	3.257133	c19.jpg	175
55.86	6	1_inacc	2	2.281333	c1.jpg	175
63.93	6	1_inacc	2	2.351382	c21.jpg	175
75.99	6	5_acc	4	3.40146	c7.jpg	175
88.06	6	5_acc	4	1.917013	c5.jpg	175
97.23	6	5_acc	4	2.547255	c3.jpg	175
107.86	6	1_acc	3	1.956517	c11.jpg	175
119.19	6	1_inacc	2	1.983866	c17.jpg	175
128.73	6	1_inacc	4	2.370921	c16.jpg	175
137.53	6	1_inacc	3	2.330297	c13.jpg	175
146.68	6	1_acc	3	1.898975	c10.jpg	175
157.65	6	5_inacc	3	4.591026	c15.jpg	175
166.44	6	5_acc	1	1.40048	c24.jpg	175
176.33	6	1_inacc	2	2.119571	c18.jpg	175
186.95	6	5_acc	1	3.132166	c20.jpg	175
197.2	6	1_inacc	1	4.742065	c8.jpg	175
208.91	6	1_acc	1	1.916844	c6.jpg	175
217.34	6	5_acc	2	2.974719	c14.jpg	175
228.31	6	5_acc	4	3.193751	c4.jpg	175
236.39	6	5_inacc	3	2.751449	c23.jpg	175
3.061	6	1_inacc	2	3.556862	c21.jpg	182
14.416	6	1_acc	4	3.937549	c13.jpg	182
23.233	6	1_inacc	3	2.942547	c16.jpg	182
35.314	6	5_inacc	4	3.188667	c3.jpg	182
45.565	6	5_acc	1	1.860244	c22.jpg	182
56.173	6	5_acc	2	3.118176	c15.jpg	182
65.333	6	5_acc	2	3.891766	c5.jpg	182
75.218	6	1_acc	4	5.1938	c18.jpg	182
85.459	6	1_inacc	3	2.592016	c10.jpg	182
97.171	6	5_acc	2	2.465934	c7.jpg	182
106.692	6	5_miss	NA	NA	c14.jpg	182
114.76	6	5_acc	4	3.961278	c12.jpg	182
123.203	6	1_acc	1	4.378436	c2.jpg	182
134.189	6	5_inacc	2	3.24202	c23.jpg	182
145.17	6	1_inacc	4	3.29019	c17.jpg	182
155.071	6	1_inacc	3	3.214208	c1.jpg	182
163.49	6	1_inacc	1	3.287219	c19.jpg	182
172.649	6	5_inacc	1	3.52E-04	c24.jpg	182
183.986	6	5_acc	2	2.650443	c9.jpg	182
196.052	6	1_inacc	3	4.042096	c11.jpg	182
206.672	6	5_acc	4	3.572587	c20.jpg	182
215.467	6	1_inacc	3	3.440144	c8.jpg	182
224.983	6	5_acc	4	4.382328	c4.jpg	182
236.684	6	1_acc	1	2.703213	c6.jpg	182
3.1	6	5_acc	4	2.238347	c7.jpg	184
12.3	6	1_inacc	4	2.610543	c18.jpg	184
22.9	6	1_inacc	4	2.043799	c8.jpg	184
33.1	6	5_acc	4	1.853379	c20.jpg	184
43	6	1_inacc	3	2.258554	c6.jpg	184
55.1	6	5_inacc	4	2.842131	c23.jpg	184
66.8	6	5_inacc	2	2.505151	c9.jpg	184
74.9	6	5_inacc	4	2.442346	c15.jpg	184
86.2	6	1_acc	2	3.103332	c13.jpg	184
96.1	6	5_inacc	2	1.667551	c5.jpg	184
106.3	6	1_inacc	2	2.466044	c11.jpg	184
115.5	6	1_inacc	4	0.7595491	c19.jpg	184
123.9	6	5_inacc	4	2.37824	c22.jpg	184
132.7	6	5_inacc	4	3.104492	c4.jpg	184
142.2	6	1_inacc	2	2.14967	c17.jpg	184
153.9	6	5_inacc	2	1.377947	c12.jpg	184
164.9	6	1_acc	4	1.28279	c10.jpg	184
174.4	6	1_inacc	4	1.801808	c2.jpg	184
182.5	6	5_acc	4	2.272153	c14.jpg	184
191	6	5_acc	4	1.442117	c24.jpg	184
203	6	1_inacc	3	3.77E-04	c1.jpg	184
214	6	5_inacc	2	1.83348	c3.jpg	184
224.7	6	1_inacc	4	1.101197	c21.jpg	184
233.5	6	1_inacc	2	2.297539	c16.jpg	184
3.05	6	1_inacc	1	2.918271	c20.jpg	186
13.32	6	5_inacc	4	4.496065	c8.jpg	186
21.74	6	1_acc	4	3.208548	c14.jpg	186
33.45	6	5_acc	2	2.829889	c16.jpg	186
43.35	6	1_acc	3	4.029881	c3.jpg	186
51.78	6	5_inacc	2	0.6870752	c11.jpg	186
63.12	6	5_inacc	3	2.428489	c1.jpg	186
73.36	6	1_acc	1	5.582496	c5.jpg	186
83.97	6	1_inacc	1	4.034313	c12.jpg	186
93.86	6	1_inacc	3	4.243713	c23.jpg	186
102.65	6	1_inacc	1	2.820455	c15.jpg	186
111.79	6	1_inacc	3	1.718878	c9.jpg	186
122.77	6	5_acc	2	1.866116	c17.jpg	186
131.92	6	5_inacc	2	3.84E-04	c18.jpg	186
141.45	6	5_inacc	2	3.89E-04	c13.jpg	186
152.06	6	5_inacc	2	3.76E-04	c19.jpg	186
164.14	6	5_inacc	4	1.512645	c10.jpg	186
175.13	6	5_inacc	3	1.914767	c2.jpg	186
183.21	6	5_inacc	2	1.865156	c21.jpg	186
194.91	6	1_inacc	1	2.63396	c22.jpg	186
204.43	6	1_inacc	2	3.43E-04	c7.jpg	186
212.49	6	1_inacc	1	1.502081	c4.jpg	186
223.82	6	1_inacc	4	1.532149	c24.jpg	186
235.89	6	5_inacc	2	1.969365	c6.jpg	186
3.06	6	1_acc	3	2.944179	c6.jpg	188
12.96	6	5_acc	2	2.043395	c5.jpg	188
24.29	6	1_acc	3	4.08399	c19.jpg	188
33.09	6	1_acc	2	3.172313	c11.jpg	188
45.16	6	1_inacc	2	3.94871	c8.jpg	188
55.42	6	1_acc	4	2.069314	c1.jpg	188
63.85	6	1_inacc	2	4.065539	c10.jpg	188
73.37	6	5_acc	3	4.323285	c20.jpg	188
82.53	6	5_inacc	4	3.9043	c12.jpg	188
91.33	6	1_acc	2	5.104044	c16.jpg	188
103.03	6	5_acc	2	3.60829	c7.jpg	188
114	6	1_inacc	3	3.53551	c17.jpg	188
124.61	6	1_acc	4	3.133015	c13.jpg	188
132.68	6	5_acc	3	2.068085	c23.jpg	188
144.74	6	5_inacc	2	5.467418	c22.jpg	188
156.44	6	1_acc	3	3.023447	c21.jpg	188
165.59	6	5_acc	2	3.37482	c15.jpg	188
175.83	6	5_inacc	2	2.577538	c14.jpg	188
186.45	6	5_inacc	2	3.154054	c4.jpg	188
194.51	6	1_inacc	2	3.115493	c18.jpg	188
205.87	6	5_inacc	1	2.574133	c3.jpg	188
214.3	6	5_acc	4	2.519301	c9.jpg	188
223.83	6	1_inacc	2	2.756905	c2.jpg	188
234.81	6	5_inacc	2	4.29E-04	c24.jpg	188
3.07	6	1_acc	2	2.111801	c16.jpg	191
14.81	6	5_inacc	1	3.307295	c5.jpg	191
25.45	6	1_acc	4	3.666685	c1.jpg	191
34.97	6	5_acc	2	2.354524	c24.jpg	191
43.76	6	5_acc	2	1.360183	c14.jpg	191
54.74	6	1_acc	1	3.365572	c6.jpg	191
63.9	6	1_acc	4	1.981062	c10.jpg	191
75.24	6	1_acc	4	3.299612	c8.jpg	191
83.68	6	5_acc	4	1.471004	c3.jpg	191
95.75	6	1_acc	3	1.383199	c17.jpg	191
104.54	6	5_acc	3	3.477939	c12.jpg	191
115.87	6	1_acc	2	2.059803	c19.jpg	191
127.95	6	5_acc	2	2.388971	c23.jpg	191
139.65	6	1_acc	4	2.056485	c18.jpg	191
147.73	6	1_acc	2	3.326449	c13.jpg	191
158.72	6	5_acc	4	1.359467	c22.jpg	191
168.24	6	5_acc	4	2.542228	c15.jpg	191
177.4	6	5_acc	1	1.347739	c9.jpg	191
187.28	6	5_inacc	4	3.967341	c4.jpg	191
197.54	6	1_acc	1	3.24066	c2.jpg	191
207.43	6	5_acc	4	2.007999	c20.jpg	191
215.87	6	5_inacc	2	3.890534	c7.jpg	191
223.94	6	1_acc	2	2.165272	c21.jpg	191
234.19	6	1_inacc	1	2.060856	c11.jpg	191
3.07	6	1_acc	1	3.097409	c17.jpg	193
12.246	6	5_acc	1	2.53129	c4.jpg	193
22.503	6	5_acc	4	1.65266	c20.jpg	193
30.928	6	5_acc	2	3.817341	c23.jpg	193
42.275	6	5_acc	1	3.842973	c24.jpg	193
51.785	6	1_inacc	2	4.362011	c11.jpg	193
63.481	6	1_inacc	1	4.673973	c8.jpg	193
74.461	6	1_acc	4	3.270464	c10.jpg	193
82.535	6	5_acc	2	3.514792	c15.jpg	193
94.247	6	5_acc	4	4.544614	c7.jpg	193
105.226	6	5_acc	1	1.644374	c12.jpg	193
115.829	6	5_acc	1	5.060095	c5.jpg	193
123.917	6	1_inacc	3	5.275944	c2.jpg	193
135.993	6	1_inacc	2	5.296635	c1.jpg	193
146.251	6	1_inacc	4	3.887598	c16.jpg	193
156.138	6	5_miss	NA	NA	c14.jpg	193
168.2	6	5_acc	4	2.370575	c22.jpg	193
178.095	6	5_acc	3	2.202065	c3.jpg	193
186.893	6	5_inacc	4	4.382367	c9.jpg	193
196.044	6	1_acc	2	1.332526	c21.jpg	193
207.382	6	1_acc	4	3.529112	c19.jpg	193
216.167	6	1_inacc	2	4.410172	c18.jpg	193
224.605	6	1_acc	2	1.84025	c6.jpg	193
235.214	6	1_inacc	3	4.58563	c13.jpg	193
3.087	6	1_inacc	3	3.194076	c8.jpg	197
11.936	6	1_acc	3	1.691984	c2.jpg	197
21.849	6	5_inacc	4	2.654414	c24.jpg	197
32.121	6	1_acc	3	2.867765	c1.jpg	197
42.772	6	5_inacc	3	3.093139	c3.jpg	197
54.515	6	5_inacc	1	3.173673	c12.jpg	197
65.866	6	1_acc	2	2.020443	c17.jpg	197
77.601	6	1_inacc	3	3.521122	c21.jpg	197
87.868	6	1_acc	2	2.964047	c19.jpg	197
97.04	6	1_inacc	1	2.535479	c16.jpg	197
109.11	6	1_acc	1	1.944953	c11.jpg	197
117.175	6	1_inacc	3	2.364223	c6.jpg	197
128.16	6	5_acc	4	2.232145	c22.jpg	197
136.597	6	5_inacc	2	2.415657	c5.jpg	197
147.22	6	5_inacc	4	2.350854	c4.jpg	197
156.386	6	1_inacc	3	2.491727	c10.jpg	197
167.727	6	5_inacc	4	2.505749	c7.jpg	197
179.808	6	5_acc	2	1.654515	c20.jpg	197
189.345	6	1_acc	4	1.350537	c13.jpg	197
197.769	6	5_inacc	2	2.562872	c15.jpg	197
208.749	6	5_inacc	2	3.514522	c14.jpg	197
216.821	6	5_inacc	3	3.206901	c23.jpg	197
225.626	6	1_acc	1	2.189801	c18.jpg	197
235.152	6	5_inacc	4	2.810443	c9.jpg	197
3.07	6	1_acc	3	3.617576	c9.jpg	202
14.79	6	1_inacc	2	4.025162	c7.jpg	202
23.6	6	1_acc	1	3.151985	c12.jpg	202
31.68	6	5_inacc	1	4.59264	c13.jpg	202
43.75	6	5_acc	4	3.075963	c10.jpg	202
53.27	6	1_acc	2	4.067134	c24.jpg	202
61.7	6	1_acc	2	1.973981	c5.jpg	202
71.23	6	5_acc	4	3.980967	c18.jpg	202
79.32	6	5_inacc	2	4.130414	c1.jpg	202
89.93	6	5_acc	2	3.487126	c6.jpg	202
100.92	6	5_acc	2	2.261738	c2.jpg	202
112.27	6	1_inacc	4	4.610364	c14.jpg	202
123.6	6	5_inacc	1	3.96146	c21.jpg	202
133.84	6	1_acc	1	3.169172	c4.jpg	202
145.91	6	5_inacc	3	4.052635	c17.jpg	202
155.06	6	1_acc	4	2.158393	c20.jpg	202
165.31	6	1_acc	1	2.653899	c23.jpg	202
174.46	6	5_acc	3	3.705028	c8.jpg	202
182.91	6	1_acc	1	4.416483	c3.jpg	202
192.79	6	1_acc	2	4.673424	c15.jpg	202
203.4	6	5_acc	2	2.895782	c11.jpg	202
213.29	6	5_inacc	3	3.552593	c16.jpg	202
222.08	6	5_acc	4	3.394857	c19.jpg	202
233.79	6	1_acc	3	3.782821	c22.jpg	202
3.1	6	1_acc	1	2.760153	c5.jpg	203
12.7	6	5_acc	2	1.881175	c10.jpg	203
24.7	6	5_acc	3	1.336267	c16.jpg	203
34.6	6	1_inacc	4	5.784916	c23.jpg	203
46.7	6	5_acc	1	1.9485	c2.jpg	203
56.2	6	1_inacc	3	3.418452	c4.jpg	203
66.8	6	5_acc	3	3.316511	c6.jpg	203
77.8	6	5_acc	4	3.313424	c19.jpg	203
89.5	6	1_inacc	2	2.22996	c3.jpg	203
97.9	6	5_acc	1	2.359633	c18.jpg	203
107.1	6	1_acc	3	2.013544	c24.jpg	203
118.4	6	5_acc	4	2.239705	c1.jpg	203
129	6	1_inacc	4	3.802825	c20.jpg	203
139.3	6	1_acc	2	2.752788	c7.jpg	203
149.2	6	5_acc	3	1.192431	c8.jpg	203
157.6	6	5_acc	4	2.760972	c11.jpg	203
167.9	6	1_acc	2	5.281639	c14.jpg	203
175.9	6	1_inacc	3	3.434658	c15.jpg	203
185.1	6	1_inacc	3	2.02862	c22.jpg	203
193.9	6	1_acc	1	5.045051	c9.jpg	203
205.6	6	5_inacc	4	4.278802	c21.jpg	203
216.9	6	5_acc	3	3.814891	c13.jpg	203
225	6	5_acc	1	2.237316	c17.jpg	203
233.8	6	1_inacc	1	2.383991	c12.jpg	203
3.05	6	1_acc	2	4.385966	c7.jpg	204
13.31	6	1_acc	3	2.180377	c5.jpg	204
21.39	6	5_acc	4	2.211783	c19.jpg	204
32	6	5_acc	1	4.007516	c2.jpg	204
40.07	6	5_inacc	1	4.939514	c13.jpg	204
49.97	6	5_inacc	1	3.529617	c1.jpg	204
59.48	6	1_acc	3	2.126631	c12.jpg	204
70.83	6	5_acc	3	2.124958	c17.jpg	204
82.53	6	1_acc	4	2.525185	c20.jpg	204
94.61	6	1_acc	3	3.008033	c15.jpg	204
105.59	6	5_acc	4	1.432652	c6.jpg	204
114.01	6	5_acc	2	1.487684	c8.jpg	204
125.34	6	5_acc	4	5.073997	c18.jpg	204
134.53	6	1_acc	4	4.768384	c24.jpg	204
144.05	6	1_acc	4	2.204963	c14.jpg	204
153.21	6	5_acc	3	1.918288	c10.jpg	204
162	6	1_acc	1	3.064515	c22.jpg	204
173.71	6	1_acc	3	3.441525	c3.jpg	204
182.15	6	5_acc	2	2.54891	c16.jpg	204
194.21	6	1_acc	1	5.141764	c4.jpg	204
203.01	6	5_acc	1	3.309877	c21.jpg	204
213.27	6	1_inacc	4	3.726712	c23.jpg	204
223.16	6	1_acc	2	3.852539	c9.jpg	204
233.77	6	5_acc	2	1.874859	c11.jpg	204
3.1	6	5_acc	2	3.550106	c22.jpg	205
13	6	5_inacc	4	3.027093	c4.jpg	205
24.72	6	5_inacc	4	3.469464	c7.jpg	205
36.79	6	1_inacc	4	3.474095	c19.jpg	205
48.22	6	1_acc	3	3.86943	c6.jpg	205
60.3	6	5_acc	1	3.259734	c9.jpg	205
71.3	6	1_inacc	3	3.759475	c17.jpg	205
82.29	6	5_acc	3	3.160004	c3.jpg	205
91.83	6	1_acc	2	4.048173	c1.jpg	205
102.09	6	1_acc	4	3.803202	c10.jpg	205
110.9	6	1_acc	4	4.543832	c8.jpg	205
120.42	6	5_inacc	1	3.444461	c14.jpg	205
131.03	6	5_inacc	1	4.148502	c15.jpg	205
139.11	6	1_acc	2	4.386383	c21.jpg	205
150.8	6	1_acc	1	2.961041	c16.jpg	205
160.69	6	5_inacc	3	4.282143	c23.jpg	205
169.11	6	5_acc	1	2.016586	c5.jpg	205
178.29	6	1_inacc	3	3.941768	c2.jpg	205
188.92	6	1_inacc	4	3.361542	c18.jpg	205
196.99	6	1_acc	1	4.315293	c11.jpg	205
205.42	6	5_inacc	2	2.819639	c20.jpg	205
215.67	6	1_inacc	2	4.378615	c13.jpg	205
224.82	6	5_inacc	4	3.086888	c24.jpg	205
236.17	6	5_acc	3	4.625184	c12.jpg	205
3	6	1_acc	1	2.20571	c7.jpg	212
14.8	6	1_acc	1	2.124348	c24.jpg	212
25	6	5_acc	2	1.629864	c8.jpg	212
33.8	6	1_acc	2	2.290252	c23.jpg	212
41.9	6	5_inacc	2	2.971183	c21.jpg	212
53.9	6	1_acc	2	3.892569	c4.jpg	212
62.4	6	5_acc	3	2.580262	c13.jpg	212
71.9	6	5_acc	2	1.591164	c11.jpg	212
83.6	6	5_acc	4	3.495377	c18.jpg	212
91.7	6	5_acc	4	4.495454	c17.jpg	212
101.6	6	1_inacc	3	4.717476	c22.jpg	212
111.1	6	1_inacc	1	2.126804	c3.jpg	212
119.9	6	5_acc	1	5.534573	c19.jpg	212
128.3	6	5_acc	2	3.610877	c16.jpg	212
137.5	6	1_acc	3	1.248158	c5.jpg	212
148.1	6	1_acc	1	1.520786	c14.jpg	212
157.3	6	1_inacc	1	4.382773	c9.jpg	212
168.2	6	1_acc	2	3.482818	c20.jpg	212
180.3	6	1_acc	1	4.189416	c12.jpg	212
191.6	6	5_acc	2	2.953421	c1.jpg	212
202.3	6	5_acc	2	5.757045	c10.jpg	212
212.5	6	5_acc	1	2.900555	c6.jpg	212
223.8	6	5_acc	1	3.298794	c2.jpg	212
234.8	6	1_inacc	2	3.114752	c15.jpg	212
3.1	6	1_acc	2	3.13	c22.jpg	215
14.9	6	5_inacc	2	5.62	c21.jpg	215
25.9	6	1_inacc	2	4.29	c23.jpg	215
35.4	6	5_inacc	4	4.05	c11.jpg	215
44.3	6	5_inacc	1	4.43	c19.jpg	215
56	6	1_inacc	4	3.54	c3.jpg	215
66.7	6	1_inacc	1	3.64	c4.jpg	215
75.5	6	5_acc	2	2.56	c1.jpg	215
84.6	6	1_acc	4	3.84	c9.jpg	215
92.7	6	5_inacc	3	5.17	c16.jpg	215
104.1	6	1_inacc	2	2.3	c12.jpg	215
114.4	6	5_inacc	2	2.38	c18.jpg	215
125.1	6	1_acc	1	5.38	c24.jpg	215
134.2	6	5_acc	2	2.77	c8.jpg	215
146.3	6	5_inacc	4	3.3	c10.jpg	215
155.9	6	1_inacc	2	1.73	c5.jpg	215
168	6	1_acc	2	2.18	c15.jpg	215
177.9	6	1_inacc	3	2.65	c20.jpg	215
186.3	6	5_inacc	4	4.14	c13.jpg	215
194.4	6	5_inacc	3	3.54	c17.jpg	215
204.7	6	1_inacc	2	2.29	c14.jpg	215
215.7	6	1_acc	2	2.21	c7.jpg	215
227	6	5_acc	2	2.09	c6.jpg	215
235.5	6	5_inacc	2	3.75	c2.jpg	215
3.1	6	1_inacc	4	2.599216	c24.jpg	220
14.8	6	5_inacc	4	2.073119	c19.jpg	220
26.1	6	5_miss	NA	NA	c8.jpg	220
36.4	6	5_inacc	4	2.032891	c2.jpg	220
48.5	6	5_inacc	1	4.37735	c13.jpg	220
58.4	6	5_acc	4	2.064164	c1.jpg	220
67.9	6	1_acc	4	3.017401	c7.jpg	220
76.3	6	1_acc	3	4.195001	c22.jpg	220
85.5	6	1_inacc	2	2.794836	c3.jpg	220
97.5	6	5_inacc	2	2.155548	c16.jpg	220
108.5	6	1_inacc	2	4.55E-04	c9.jpg	220
118.4	6	5_acc	2	4.00E-04	c11.jpg	220
130.1	6	5_inacc	2	3.39E-04	c21.jpg	220
140.7	6	1_inacc	2	3.94E-04	c20.jpg	220
149.5	6	1_inacc	2	3.66E-04	c15.jpg	220
157.6	6	1_acc	2	3.54E-04	c23.jpg	220
168.5	6	5_acc	2	4.66E-04	c10.jpg	220
177	6	1_inacc	2	3.78E-04	c14.jpg	220
188.3	6	1_inacc	2	3.91E-04	c5.jpg	220
199	6	1_inacc	2	3.90E-04	c4.jpg	220
208.5	6	1_inacc	2	7.60E-04	c12.jpg	220
218.7	6	5_acc	2	3.96E-04	c6.jpg	220
227.5	6	5_inacc	2	4.17E-04	c17.jpg	220
236.7	6	5_inacc	2	4.07E-04	c18.jpg	220
3.1	6	1_inacc	3	3.805796	c22.jpg	221
11.5	6	5_inacc	3	2.749441	c8.jpg	221
23.6	6	1_inacc	2	2.987545	c12.jpg	221
31.7	6	1_inacc	1	4.76231	c24.jpg	221
40.5	6	5_acc	2	3.883709	c6.jpg	221
48.6	6	1_inacc	1	4.644493	c5.jpg	221
59.5	6	5_acc	1	5.233872	c11.jpg	221
70.5	6	1_inacc	1	3.950478	c20.jpg	221
80.1	6	1_inacc	1	4.436679	c15.jpg	221
90.7	6	5_inacc	3	5.50182	c1.jpg	221
99.5	6	5_acc	3	3.345259	c21.jpg	221
109.7	6	5_inacc	4	4.483143	c16.jpg	221
120.4	6	5_miss	NA	NA	c10.jpg	221
131.7	6	5_inacc	2	5.055085	c17.jpg	221
140.1	6	5_inacc	1	3.080523	c19.jpg	221
151.8	6	1_inacc	1	3.295333	c14.jpg	221
161.7	6	1_inacc	3	2.940111	c9.jpg	221
170.9	6	1_inacc	2	2.755525	c4.jpg	221
182.6	6	1_inacc	1	3.414232	c23.jpg	221
194	6	1_inacc	2	3.13934	c3.jpg	221
204.2	6	5_acc	2	3.714927	c18.jpg	221
213.4	6	1_acc	4	3.078939	c7.jpg	221
225.4	6	5_inacc	1	5.22871	c13.jpg	221
235.3	6	5_inacc	3	4.714032	c2.jpg	221
3.06	6	1_acc	2	3.494688	c18.jpg	223
13.69	6	1_acc	2	1.277836	c19.jpg	223
22.14	6	5_inacc	3	3.993793	c22.jpg	223
32.04	6	1_inacc	1	3.713868	c1.jpg	223
43.02	6	5_acc	3	2.418757	c23.jpg	223
54.73	6	1_acc	4	1.758568	c13.jpg	223
63.53	6	5_acc	3	1.688819	c24.jpg	223
71.96	6	1_inacc	4	2.905619	c11.jpg	223
84.03	6	1_acc	4	5.715863	c17.jpg	223
92.09	6	5_acc	4	3.316944	c5.jpg	223
103.43	6	1_inacc	1	4.038318	c8.jpg	223
113.69	6	1_acc	1	3.756687	c21.jpg	223
123.21	6	5_acc	4	1.687657	c4.jpg	223
133.47	6	5_acc	1	4.137847	c15.jpg	223
142.27	6	5_inacc	3	5.106252	c9.jpg	223
152.88	6	1_acc	1	5.129355	c6.jpg	223
162.75	6	1_acc	2	4.258151	c16.jpg	223
174.11	6	5_acc	4	4.45674	c3.jpg	223
183.26	6	5_acc	4	4.428797	c14.jpg	223
191.33	6	5_acc	1	3.507463	c20.jpg	223
200.86	6	5_acc	2	4.4513	c12.jpg	223
212.93	6	5_acc	2	5.141543	c7.jpg	223
223.9	6	1_acc	2	3.476931	c10.jpg	223
233.07	6	1_inacc	1	3.187694	c2.jpg	223
3	6	5_inacc	3	2.13938	c16.jpg	224
14.4	6	1_inacc	1	2.648379	c15.jpg	224
24.3	6	5_acc	2	2.134999	c18.jpg	224
33	6	5_acc	4	2.687926	c13.jpg	224
44	6	1_inacc	1	2.226507	c3.jpg	224
55.7	6	5_inacc	1	2.763741	c8.jpg	224
65.6	6	5_acc	3	3.329349	c19.jpg	224
75.9	6	1_acc	1	1.94038	c20.jpg	224
87.2	6	1_inacc	3	2.413687	c24.jpg	224
98.2	6	1_inacc	4	2.496795	c4.jpg	224
107.3	6	5_inacc	2	2.069437	c17.jpg	224
116.8	6	5_inacc	1	3.107868	c1.jpg	224
127.5	6	1_inacc	2	2.509932	c9.jpg	224
135.5	6	1_inacc	3	1.646445	c14.jpg	224
144.3	6	5_inacc	1	2.41838	c10.jpg	224
156	6	1_acc	4	2.757155	c22.jpg	224
168.1	6	1_inacc	4	3.052329	c5.jpg	224
177.6	6	1_inacc	3	3.175309	c23.jpg	224
187.9	6	5_inacc	3	3.648823	c21.jpg	224
196.3	6	1_acc	3	3.157475	c7.jpg	224
204.7	6	1_inacc	4	3.589698	c12.jpg	224
215.3	6	5_acc	1	2.750253	c11.jpg	224
224.5	6	5_acc	4	3.040187	c6.jpg	224
232.6	6	5_inacc	4	4.805785	c2.jpg	224
3.1	6	1_inacc	2	1.390476	c13.jpg	226
12.7	6	5_inacc	3	1.862465	c24.jpg	226
22.9	6	5_acc	2	1.083712	c3.jpg	226
32.8	6	1_inacc	2	1.017943	c2.jpg	226
42.7	6	5_inacc	4	2.222727	c20.jpg	226
50.8	6	5_inacc	2	1.691484	c5.jpg	226
61.4	6	5_inacc	1	2.167084	c4.jpg	226
72.3	6	1_acc	3	1.507862	c19.jpg	226
84.4	6	5_inacc	3	1.899472	c15.jpg	226
93.9	6	5_inacc	2	1.23688	c14.jpg	226
102.4	6	5_acc	2	0.9998088	c9.jpg	226
111.2	6	1_inacc	4	1.436205	c8.jpg	226
121.8	6	1_acc	1	1.489317	c18.jpg	226
130.9	6	1_acc	3	1.509638	c17.jpg	226
139.4	6	1_inacc	2	1.465589	c16.jpg	226
147.4	6	5_inacc	2	1.507193	c7.jpg	226
159.5	6	5_inacc	2	0.9660426	c22.jpg	226
171.2	6	1_inacc	2	0.8398464	c1.jpg	226
181.5	6	5_inacc	2	1.086367	c23.jpg	226
192.8	6	1_acc	3	1.084219	c6.jpg	226
201.6	6	1_acc	2	0.9035203	c10.jpg	226
212.6	6	1_acc	1	1.533614	c21.jpg	226
224.3	6	1_inacc	1	1.466978	c11.jpg	226
235.6	6	5_inacc	2	0.8387115	c12.jpg	226
3.1	6	5_acc	4	3.285087	c7.jpg	227
14.8	6	5_acc	2	2.465558	c23.jpg	227
24	6	1_acc	1	1.632979	c6.jpg	227
33.2	6	5_acc	3	3.46456	c24.jpg	227
43.8	6	1_acc	4	3.719112	c17.jpg	227
54.1	6	1_acc	1	4.769181	c2.jpg	227
65	6	5_inacc	3	3.827827	c9.jpg	227
77.1	6	1_acc	2	2.867449	c1.jpg	227
89.2	6	1_acc	2	2.937926	c16.jpg	227
100.9	6	5_acc	2	2.944593	c4.jpg	227
109	6	1_acc	2	4.427797	c18.jpg	227
120.3	6	1_acc	4	1.82762	c13.jpg	227
130.9	6	5_acc	4	1.845029	c3.jpg	227
139.4	6	5_inacc	2	2.195319	c14.jpg	227
150.4	6	5_inacc	1	3.023213	c20.jpg	227
160.6	6	1_acc	3	4.901924	c21.jpg	227
169.4	6	1_acc	3	2.660317	c11.jpg	227
178.9	6	5_acc	4	2.795924	c15.jpg	227
188.5	6	5_acc	4	3.386617	c5.jpg	227
199.8	6	1_inacc	4	2.941897	c19.jpg	227
207.9	6	5_inacc	1	2.440359	c12.jpg	227
216.7	6	1_acc	4	2.663984	c8.jpg	227
225.1	6	1_acc	1	3.732262	c10.jpg	227
235	6	5_inacc	3	3.36303	c22.jpg	227
3.1	6	1_inacc	3	2.526583	c23.jpg	229
13	6	5_acc	4	4.005396	c21.jpg	229
23.3	6	1_acc	1	3.19414	c4.jpg	229
32.4	6	1_acc	1	3.864107	c12.jpg	229
43	6	5_inacc	2	3.26496	c16.jpg	229
52.6	6	5_inacc	4	3.969724	c13.jpg	229
63.5	6	1_acc	4	2.291068	c15.jpg	229
72.3	6	5_inacc	4	2.937027	c18.jpg	229
81.5	6	1_acc	2	2.416512	c7.jpg	229
92.5	6	1_inacc	1	3.061609	c24.jpg	229
100.9	6	1_acc	2	2.982318	c3.jpg	229
112.6	6	1_acc	2	3.816504	c22.jpg	229
124.7	6	5_acc	3	2.844732	c17.jpg	229
133.1	6	1_inacc	2	4.441081	c5.jpg	229
141.2	6	5_inacc	1	2.331609	c2.jpg	229
152.9	6	1_acc	3	3.789095	c9.jpg	229
163.1	6	5_inacc	3	3.642538	c6.jpg	229
173.8	6	5_inacc	1	3.08571	c1.jpg	229
183.7	6	5_inacc	2	4.807896	c8.jpg	229
195	6	5_acc	3	3.594124	c19.jpg	229
203.1	6	5_acc	1	2.668228	c11.jpg	229
215.1	6	1_acc	2	4.766424	c14.jpg	229
226.5	6	5_inacc	4	2.406903	c10.jpg	229
235.3	6	1_inacc	2	3.137131	c20.jpg	229
3	6	5_acc	2	2.082131	p21.jpg	105
14	6	1_acc	1	1.571195	p8.jpg	105
22.9	6	5_acc	3	1.434204	p15.jpg	105
34.2	6	1_acc	2	1.337189	p4.jpg	105
44.8	6	1_acc	4	1.590277	p7.jpg	105
56.2	6	5_acc	3	2.725879	p18.jpg	105
66.1	6	1_acc	4	2.188155	p14.jpg	105
76.3	6	5_acc	4	2.894319	p19.jpg	105
86.6	6	5_acc	2	1.773872	p16.jpg	105
97.2	6	5_inacc	3	3.315764	p22.jpg	105
105.3	6	5_acc	3	3.585217	p5.jpg	105
117.4	6	1_acc	4	3.33943	p23.jpg	105
129.1	6	5_acc	4	3.826394	p24.jpg	105
138.2	6	5_acc	1	2.849336	p1.jpg	105
147	6	1_inacc	1	3.726461	p13.jpg	105
158	6	5_acc	3	3.359201	p12.jpg	105
169.7	6	1_acc	3	3.498139	p11.jpg	105
179.6	6	1_inacc	3	3.675611	p9.jpg	105
188.1	6	1_acc	4	1.364812	p3.jpg	105
200.2	6	1_acc	2	3.225208	p10.jpg	105
209.3	6	1_acc	4	4.393285	p6.jpg	105
217.4	6	5_inacc	3	4.488997	p17.jpg	105
226.9	6	1_acc	4	3.174522	p2.jpg	105
236.5	6	5_acc	1	3.57724	p20.jpg	105
3.11	6	5_inacc	2	3.821902	p1.jpg	106
14.88	6	5_inacc	2	4.967392	p17.jpg	106
25.17	6	5_acc	3	2.296259	p24.jpg	106
33.64	6	5_acc	1	2.662246	p15.jpg	106
42.45	6	1_acc	3	5.461425	p6.jpg	106
50.88	6	5_miss	NA	NA	p19.jpg	106
62.24	6	1_acc	2	2.219032	p3.jpg	106
71.78	6	1_inacc	1	4.216563	p14.jpg	106
82.41	6	1_acc	4	3.825982	p11.jpg	106
94.49	6	1_acc	1	1.44469	p9.jpg	106
104.75	6	1_acc	2	1.479137	p2.jpg	106
112.83	6	5_inacc	2	3.789106	p12.jpg	106
120.9	6	1_inacc	2	4.592137	p8.jpg	106
129.72	6	5_acc	4	4.672853	p5.jpg	106
138.89	6	1_inacc	1	4.310894	p7.jpg	106
150.6	6	1_inacc	4	3.263536	p23.jpg	106
161.58	6	5_acc	3	2.497815	p21.jpg	106
173.67	6	5_inacc	3	3.942461	p20.jpg	106
183.56	6	1_acc	2	1.73811	p4.jpg	106
193.45	6	5_inacc	3	3.922765	p16.jpg	106
204.09	6	5_acc	4	4.411144	p22.jpg	106
213.63	6	1_inacc	2	3.994479	p10.jpg	106
224.97	6	1_inacc	2	4.471386	p13.jpg	106
234.14	6	5_inacc	3	4.115155	p18.jpg	106
3.06	6	1_inacc	3	2.020907	p17.jpg	111
15.15	6	5_inacc	1	2.943175	p14.jpg	111
24.67	6	1_acc	2	1.479928	p24.jpg	111
34.58	6	5_acc	1	2.699167	p3.jpg	111
44.46	6	5_acc	3	1.455633	p2.jpg	111
56.17	6	1_inacc	2	3.297671	p20.jpg	111
64.24	6	1_acc	2	1.435994	p12.jpg	111
73.04	6	5_inacc	4	3.056659	p13.jpg	111
84.03	6	1_acc	4	2.502915	p1.jpg	111
95.73	6	1_acc	3	1.203782	p5.jpg	111
104.16	6	5_acc	2	1.483261	p11.jpg	111
114.41	6	5_acc	4	2.421982	p10.jpg	111
122.84	6	5_acc	3	1.116393	p7.jpg	111
134.91	6	5_inacc	4	2.938023	p23.jpg	111
143.72	6	1_acc	3	4.159965	p22.jpg	111
153.25	6	1_acc	2	2.133923	p21.jpg	111
162.41	6	5_acc	3	1.257521	p6.jpg	111
173.76	6	5_acc	3	1.138027	p9.jpg	111
181.83	6	1_inacc	3	3.942918	p16.jpg	111
192.09	6	5_acc	2	1.714528	p8.jpg	111
201.24	6	1_inacc	1	3.049803	p15.jpg	111
212.21	6	1_acc	4	2.638197	p19.jpg	111
222.83	6	1_inacc	2	3.308326	p18.jpg	111
234.18	6	5_acc	4	1.784158	p4.jpg	111
3.08	6	5_inacc	1	2.240147	p23.jpg	114
14.8	6	5_acc	2	1.826218	p3.jpg	114
23.97	6	1_inacc	1	3.320354	p22.jpg	114
34.59	6	1_inacc	1	3.29339	p21.jpg	114
42.66	6	1_acc	1	1.406137	p16.jpg	114
52.19	6	5_acc	3	2.457696	p6.jpg	114
63.53	6	5_acc	2	2.490173	p13.jpg	114
74.16	6	1_inacc	2	2.249274	p12.jpg	114
85.87	6	1_acc	4	3.700072	p19.jpg	114
96.12	6	1_acc	3	3.801193	p17.jpg	114
105.29	6	1_inacc	1	2.544689	p20.jpg	114
117.36	6	5_inacc	4	2.941843	p8.jpg	114
126.16	6	5_acc	2	2.524667	p7.jpg	114
136.05	6	1_acc	1	2.730668	p24.jpg	114
147.4	6	1_inacc	3	3.839888	p5.jpg	114
156.2	6	5_acc	2	2.392544	p2.jpg	114
167.19	6	5_acc	1	3.589403	p11.jpg	114
177.45	6	5_acc	4	4.493603	p9.jpg	114
189.52	6	5_acc	2	2.036231	p4.jpg	114
197.59	6	1_inacc	1	2.907721	p1.jpg	114
207.48	6	5_acc	4	4.15799	p14.jpg	114
215.9	6	1_acc	1	1.837745	p18.jpg	114
224.33	6	1_inacc	4	3.29807	p15.jpg	114
235.31	6	5_inacc	1	2.483267	p10.jpg	114
3.165	6	5_acc	3	4.389208	p7.jpg	115
15.283	6	1_acc	2	1.389814	p22.jpg	115
27.386	6	1_acc	4	1.807369	p15.jpg	115
38.765	6	1_acc	4	4.233656	p5.jpg	115
48.652	6	1_inacc	3	3.739007	p19.jpg	115
58.195	6	5_acc	3	1.359714	p4.jpg	115
68.475	6	1_acc	4	3.055138	p16.jpg	115
80.183	6	5_acc	3	1.407433	p2.jpg	115
91.567	6	5_acc	3	1.529026	p9.jpg	115
103.313	6	5_acc	1	1.8507	p6.jpg	115
112.856	6	5_inacc	4	3.185015	p11.jpg	115
121.286	6	5_acc	2	1.913393	p14.jpg	115
131.931	6	5_acc	3	1.231316	p3.jpg	115
140.742	6	5_acc	2	3.367235	p13.jpg	115
148.824	6	5_acc	1	2.25114	p8.jpg	115
158.719	6	1_acc	1	2.510375	p24.jpg	115
169.005	6	1_acc	1	3.453321	p20.jpg	115
177.805	6	1_acc	3	1.535265	p17.jpg	115
185.878	6	1_acc	2	2.944766	p18.jpg	115
196.91	6	5_acc	3	1.471852	p23.jpg	115
206.067	6	1_acc	2	1.241018	p12.jpg	115
214.5	6	1_acc	2	2.055233	p1.jpg	115
223.667	6	5_acc	2	1.01282	p10.jpg	115
234.648	6	1_acc	3	2.795352	p21.jpg	115
3.1	6	1_acc	2	3.134522	p5.jpg	118
11.9	6	5_acc	3	2.837351	p9.jpg	118
20	6	1_inacc	3	3.948992	p1.jpg	118
29.1	6	1_inacc	1	3.076697	p20.jpg	118
41.2	6	1_acc	4	4.246464	p21.jpg	118
49.3	6	5_acc	3	2.009421	p8.jpg	118
59.2	6	1_acc	1	2.157942	p12.jpg	118
69.4	6	5_acc	2	2.707689	p7.jpg	118
80.8	6	1_acc	1	4.577012	p18.jpg	118
91.8	6	1_acc	3	2.604185	p15.jpg	118
103.1	6	1_acc	1	2.812671	p16.jpg	118
113.7	6	1_acc	1	4.617203	p22.jpg	118
123.2	6	5_inacc	2	4.741454	p13.jpg	118
134.9	6	5_acc	2	4.037935	p6.jpg	118
147	6	5_acc	4	2.48566	p11.jpg	118
155.5	6	5_acc	1	3.67252	p3.jpg	118
165	6	1_acc	1	3.325801	p24.jpg	118
174.9	6	5_inacc	4	4.760241	p23.jpg	118
183.7	6	1_acc	4	5.069891	p17.jpg	118
195.4	6	5_acc	2	1.997758	p4.jpg	118
206.3	6	1_acc	3	5.697569	p19.jpg	118
214.8	6	5_miss	NA	NA	p2.jpg	118
225.4	6	5_acc	1	3.996693	p10.jpg	118
234.5	6	5_acc	1	2.921775	p14.jpg	118
3.1	6	1_acc	4	4.638987	p22.jpg	121
14.8	6	5_acc	3	2.823405	p10.jpg	121
22.9	6	1_acc	3	3.693276	p1.jpg	121
32.1	6	1_acc	3	2.243553	p17.jpg	121
41.6	6	5_miss	NA	NA	p13.jpg	121
51.9	6	5_acc	2	2.205881	p6.jpg	121
60.3	6	5_acc	4	2.035959	p2.jpg	121
69.1	6	1_acc	1	5.167213	p21.jpg	121
81.2	6	1_inacc	3	5.106426	p20.jpg	121
91.4	6	5_inacc	2	4.755978	p14.jpg	121
103.5	6	1_acc	2	1.417202	p16.jpg	121
113.4	6	5_acc	3	5.089434	p9.jpg	121
122.6	6	5_inacc	3	4.655852	p8.jpg	121
132.5	6	1_inacc	4	5.763176	p19.jpg	121
140.5	6	5_acc	2	2.418611	p23.jpg	121
152.2	6	1_acc	4	3.748549	p18.jpg	121
163.6	6	1_acc	2	4.886852	p15.jpg	121
174.5	6	5_acc	1	1.081686	p4.jpg	121
185.2	6	5_acc	4	1.935262	p11.jpg	121
196.2	6	1_acc	2	2.459102	p5.jpg	121
204.6	6	1_acc	4	2.945016	p12.jpg	121
213.4	6	5_acc	4	5.71099	p3.jpg	121
224.7	6	5_acc	1	1.588706	p7.jpg	121
234.2	6	1_acc	1	3.83171	p24.jpg	121
3	6	5_acc	4	2.160722	p11.jpg	122
13.7	6	5_inacc	2	1.92	p13.jpg	122
23.9	6	1_inacc	1	2.941275	p21.jpg	122
36	6	5_acc	4	4.091051	p9.jpg	122
47.7	6	5_acc	3	3.208138	p2.jpg	122
56.9	6	1_acc	1	2.900739	p24.jpg	122
66.4	6	1_acc	3	2.214671	p18.jpg	122
74.8	6	1_inacc	4	2.651967	p19.jpg	122
84.7	6	5_acc	4	2.820196	p4.jpg	122
94.6	6	1_acc	3	3.104046	p22.jpg	122
105.6	6	1_acc	1	2.335515	p20.jpg	122
117.3	6	1_inacc	3	1.334878	p5.jpg	122
128.6	6	5_acc	1	2.467292	p7.jpg	122
140	6	5_acc	3	3.34695	p6.jpg	122
148	6	1_inacc	4	3.089318	p1.jpg	122
156.1	6	5_inacc	2	2.651934	p10.jpg	122
164.9	6	5_inacc	2	3.13991	p3.jpg	122
173.3	6	1_acc	3	2.059042	p12.jpg	122
183.6	6	5_inacc	4	3.553764	p8.jpg	122
193.1	6	5_inacc	2	3.392471	p14.jpg	122
204.1	6	1_inacc	2	3.06034	p16.jpg	122
212.9	6	1_inacc	4	2.547541	p17.jpg	122
222.1	6	1_inacc	3	2.119712	p15.jpg	122
232.7	6	5_acc	3	2.252712	p23.jpg	122
3.07	6	5_acc	3	3.8199	p9.jpg	125
11.16	6	5_acc	3	4.246074	p6.jpg	125
21.78	6	1_acc	3	3.40867	p16.jpg	125
30.22	6	5_inacc	1	3.886797	p10.jpg	125
41.57	6	5_inacc	4	4.089253	p14.jpg	125
51.81	6	1_acc	2	3.329531	p21.jpg	125
62.78	6	5_acc	1	1.467967	p3.jpg	125
71.95	6	1_miss	NA	NA	p15.jpg	125
84.03	6	1_acc	4	2.715285	p19.jpg	125
92.1	6	1_inacc	1	4.596183	p17.jpg	125
103.44	6	5_acc	1	1.642458	p7.jpg	125
112.24	6	5_acc	2	2.449093	p23.jpg	125
120.68	6	5_inacc	4	3.518561	p2.jpg	125
131.65	6	1_acc	2	1.967637	p1.jpg	125
143.36	6	1_acc	2	3.25556	p22.jpg	125
152.53	6	1_acc	1	1.294892	p24.jpg	125
162.06	6	5_acc	3	4.639062	p13.jpg	125
174.12	6	1_acc	4	1.391516	p18.jpg	125
184.02	6	5_acc	1	3.838706	p11.jpg	125
193.92	6	5_acc	1	2.855161	p4.jpg	125
203.45	6	1_inacc	2	4.302546	p20.jpg	125
213.7	6	1_inacc	2	3.407539	p5.jpg	125
224.31	6	1_inacc	3	5.230928	p12.jpg	125
233.11	6	5_acc	3	4.703133	p8.jpg	125
3.08	6	1_acc	4	1.887302	p7.jpg	127
14.45	6	1_acc	2	2.124426	p10.jpg	127
25.09	6	1_inacc	4	3.476295	p8.jpg	127
37.17	6	5_inacc	2	4.257826	p17.jpg	127
45.97	6	1_inacc	4	4.483968	p13.jpg	127
55.86	6	5_acc	3	1.556525	p16.jpg	127
66.49	6	5_inacc	2	3.165182	p5.jpg	127
76.76	6	5_acc	4	4.539972	p15.jpg	127
88.11	6	5_acc	1	3.814433	p12.jpg	127
97.63	6	1_acc	3	3.857186	p3.jpg	127
109.32	6	5_acc	2	1.227726	p21.jpg	127
120.31	6	5_acc	4	2.128954	p1.jpg	127
128.74	6	5_inacc	2	3.119522	p20.jpg	127
140.83	6	1_inacc	3	2.550198	p9.jpg	127
148.9	6	1_inacc	4	3.281039	p6.jpg	127
157.32	6	1_acc	3	1.428008	p2.jpg	127
166.12	6	5_acc	4	2.260518	p18.jpg	127
177.82	6	1_acc	3	3.46332	p23.jpg	127
186.98	6	1_inacc	3	4.164193	p11.jpg	127
197.96	6	1_acc	3	3.821619	p4.jpg	127
208.21	6	1_inacc	2	3.344132	p14.jpg	127
217.75	6	5_acc	4	4.384043	p22.jpg	127
226.91	6	5_inacc	3	3.51214	p24.jpg	127
236.79	6	5_acc	3	3.115392	p19.jpg	127
3.1	6	1_inacc	3	3.824304	p6.jpg	132
13.4	6	5_acc	3	3.054281	p18.jpg	132
25.4	6	5_acc	1	4.054766	p12.jpg	132
37.2	6	5_acc	1	2.33739	p24.jpg	132
48.1	6	5_acc	2	3.050629	p1.jpg	132
56.6	6	1_inacc	2	3.027449	p13.jpg	132
65	6	5_inacc	4	3.595926	p5.jpg	132
74.9	6	5_acc	3	2.397632	p20.jpg	132
84.1	6	1_inacc	4	4.22692	p3.jpg	132
93.6	6	1_acc	3	4.102837	p4.jpg	132
105.7	6	1_acc	1	3.474508	p7.jpg	132
117.4	6	1_acc	2	4.876203	p23.jpg	132
128.7	6	5_acc	3	3.135992	p19.jpg	132
137.5	6	1_inacc	3	2.722436	p8.jpg	132
146.7	6	5_inacc	1	4.468969	p17.jpg	132
158	6	5_acc	3	1.335293	p21.jpg	132
168.3	6	1_inacc	3	3.423875	p10.jpg	132
178.9	6	1_acc	3	3.534785	p2.jpg	132
187.7	6	5_acc	2	1.745825	p16.jpg	132
198.3	6	5_acc	1	3.071668	p15.jpg	132
207.8	6	1_acc	2	3.46708	p11.jpg	132
218.8	6	1_inacc	3	2.738057	p9.jpg	132
226.9	6	5_acc	1	2.583253	p22.jpg	132
235	6	1_inacc	3	3.113361	p14.jpg	132
3.125	6	5_inacc	1	2.35995	p21.jpg	134
13.8	6	1_inacc	4	1.781491	p10.jpg	134
22.259	6	5_inacc	3	2.493936	p5.jpg	134
31.458	6	5_inacc	1	1.970925	p1.jpg	134
39.558	6	5_inacc	3	3.974445	p16.jpg	134
50.91	6	1_acc	1	3.392091	p6.jpg	134
60.441	6	1_acc	1	3.657997	p14.jpg	134
71.792	6	5_acc	4	3.204936	p19.jpg	134
80.255	6	5_inacc	4	5.78685	p17.jpg	134
90.159	6	1_inacc	1	3.145807	p7.jpg	134
100.046	6	5_inacc	1	2.854084	p15.jpg	134
109.562	6	5_acc	1	2.388139	p24.jpg	134
121.626	6	1_inacc	4	3.870094	p13.jpg	134
130.781	6	1_acc	4	4.696724	p9.jpg	134
138.854	6	5_inacc	4	4.503923	p18.jpg	134
149.863	6	5_acc	3	2.338976	p12.jpg	134
160.113	6	1_acc	3	4.930119	p4.jpg	134
171.086	6	5_inacc	1	2.992117	p20.jpg	134
179.891	6	1_acc	2	5.024299	p23.jpg	134
188.695	6	1_acc	1	0.8581383	p11.jpg	134
200.768	6	1_inacc	4	3.23528	p2.jpg	134
211.379	6	1_acc	2	4.226175	p8.jpg	134
223.085	6	5_inacc	2	4.062748	p22.jpg	134
234.788	6	1_acc	2	2.917133	p3.jpg	134
3.1	6	5_inacc	2	2.566668	p8.jpg	135
15.3	6	1_acc	1	2.80348	p21.jpg	135
23.3	6	1_inacc	3	4.399486	p15.jpg	135
32.1	6	1_inacc	1	2.258708	p12.jpg	135
42.1	6	1_inacc	2	3.005983	p17.jpg	135
53	6	5_acc	4	4.258774	p13.jpg	135
64.4	6	5_inacc	1	3.257943	p10.jpg	135
75	6	5_inacc	2	1.842269	p9.jpg	135
85.3	6	1_acc	2	2.881282	p22.jpg	135
96.7	6	1_acc	3	3.204531	p18.jpg	135
105.1	6	1_inacc	2	3.31504	p5.jpg	135
114.3	6	5_inacc	4	2.712693	p3.jpg	135
123.1	6	5_acc	3	3.425292	p11.jpg	135
131.5	6	1_acc	4	1.898139	p16.jpg	135
143.6	6	5_acc	1	2.902901	p2.jpg	135
155.3	6	5_acc	2	2.036952	p23.jpg	135
165.2	6	1_inacc	1	3.564828	p1.jpg	135
176.9	6	5_acc	1	3.09655	p14.jpg	135
187.9	6	1_inacc	3	2.734549	p19.jpg	135
197.4	6	5_inacc	1	1.962794	p7.jpg	135
205.5	6	1_inacc	2	3.096451	p24.jpg	135
215.7	6	5_inacc	2	3.341767	p6.jpg	135
225.3	6	1_inacc	4	2.071916	p20.jpg	135
235.9	6	5_acc	4	2.084233	p4.jpg	135
3	6	1_inacc	2	1.67	p12.jpg	141
15	6	1_inacc	4	2.42	p5.jpg	141
24.1	6	5_inacc	2	2.99	p8.jpg	141
33.9	6	1_inacc	3	1.7	p24.jpg	141
44.8	6	1_acc	3	1.63	p15.jpg	141
53.6	6	1_inacc	3	1.75	p17.jpg	141
63	6	1_inacc	3	2.21	p19.jpg	141
73.6	6	5_acc	1	2.57	p13.jpg	141
84.5	6	5_acc	3	1.24	p9.jpg	141
93.9	6	5_acc	2	2.22	p6.jpg	141
106	6	1_inacc	3	1.67	p1.jpg	141
116	6	5_acc	1	3.44	p11.jpg	141
128	6	1_inacc	1	2.84	p20.jpg	141
136	6	5_acc	2	1.05	p23.jpg	141
144	6	5_acc	1	2.18	p2.jpg	141
155	6	1_inacc	3	1.92	p18.jpg	141
164	6	1_acc	3	2.08	p22.jpg	141
176	6	5_acc	1	1.68	p7.jpg	141
184	6	1_acc	2	1.78	p21.jpg	141
192	6	5_acc	2	3.49	p4.jpg	141
201	6	5_acc	4	3.71	p10.jpg	141
212	6	5_acc	1	2.82	p14.jpg	141
221	6	1_inacc	1	1.81	p16.jpg	141
233	6	5_acc	1	2.14	p3.jpg	141
3.1	6	1_inacc	1	3.315246	p11.jpg	143
13.4	6	1_acc	1	5.325087	p10.jpg	143
25.1	6	5_acc	4	3.111173	p22.jpg	143
36.1	6	1_inacc	2	4.023063	p2.jpg	143
45.6	6	1_acc	3	2.241579	p7.jpg	143
56.6	6	5_inacc	1	4.302502	p5.jpg	143
66.5	6	1_acc	2	2.297903	p3.jpg	143
75.3	6	5_inacc	1	3.745691	p19.jpg	143
84.5	6	5_acc	2	3.298562	p21.jpg	143
95.1	6	5_inacc	1	2.779585	p20.jpg	143
106.4	6	1_acc	3	3.784043	p4.jpg	143
117.8	6	1_acc	3	2.930355	p13.jpg	143
127.7	6	5_acc	2	3.669203	p17.jpg	143
137.2	6	1_inacc	1	3.096778	p6.jpg	143
147.8	6	5_acc	1	2.778158	p1.jpg	143
156.2	6	5_inacc	3	2.794282	p12.jpg	143
164.3	6	1_inacc	2	4.13358	p14.jpg	143
172.4	6	5_inacc	1	3.991245	p24.jpg	143
184.1	6	5_acc	4	2.837481	p16.jpg	143
192.8	6	1_acc	1	3.027232	p8.jpg	143
201.3	6	1_acc	3	2.974301	p9.jpg	143
210.4	6	5_inacc	4	3.457644	p18.jpg	143
220.7	6	5_acc	3	2.038293	p15.jpg	143
232.8	6	1_acc	1	2.337048	p23.jpg	143
3.08	6	5_inacc	2	2.687271	p15.jpg	146
11.18	6	5_acc	2	2.571989	p5.jpg	146
23.28	6	1_acc	2	3.071544	p23.jpg	146
31.73	6	1_acc	2	4.416224	p14.jpg	146
43.45	6	1_inacc	2	2.552852	p13.jpg	146
53.34	6	1_inacc	4	4.181524	p9.jpg	146
63.96	6	5_acc	1	3.36282	p16.jpg	146
73.85	6	1_acc	3	2.632534	p7.jpg	146
84.11	6	5_acc	2	4.875543	p21.jpg	146
95.46	6	5_inacc	3	3.676071	p1.jpg	146
106.08	6	1_acc	2	4.074734	p8.jpg	146
118.15	6	5_inacc	4	4.049655	p20.jpg	146
129.86	6	1_inacc	1	4.168486	p11.jpg	146
137.92	6	1_acc	4	3.362828	p6.jpg	146
147.44	6	1_inacc	4	5.086556	p2.jpg	146
158.78	6	5_inacc	3	4.874062	p18.jpg	146
167.22	6	5_acc	2	3.116465	p19.jpg	146
178.19	6	1_inacc	2	4.258346	p4.jpg	146
189.17	6	1_acc	4	2.130592	p3.jpg	146
197.97	6	5_inacc	2	5.391069	p17.jpg	146
206.77	6	1_acc	1	1.670786	p10.jpg	146
215.93	6	5_inacc	2	3.857091	p22.jpg	146
225.09	6	5_acc	4	1.792325	p12.jpg	146
235.34	6	5_acc	2	3.887584	p24.jpg	146
3	6	1_acc	2	4.890985	p20.jpg	147
12.6	6	1_inacc	1	3.587786	p16.jpg	147
23.6	6	5_acc	2	5.639924	p6.jpg	147
31.7	6	5_inacc	4	5.803773	p2.jpg	147
42.7	6	5_inacc	2	3.930085	p9.jpg	147
52.2	6	5_acc	3	4.664045	p8.jpg	147
64.3	6	1_inacc	4	4.491954	p19.jpg	147
74.5	6	5_inacc	1	5.287783	p13.jpg	147
84.8	6	1_acc	3	3.775468	p21.jpg	147
92.8	6	1_inacc	4	4.285209	p15.jpg	147
104.5	6	5_inacc	1	2.528622	p4.jpg	147
114.4	6	5_inacc	1	4.134852	p7.jpg	147
125.8	6	5_inacc	2	4.857677	p11.jpg	147
136.4	6	5_inacc	1	3.770387	p3.jpg	147
145.5	6	1_inacc	1	2.929317	p17.jpg	147
154.7	6	5_acc	2	3.619496	p10.jpg	147
163.1	6	1_inacc	2	7.96E-04	p24.jpg	147
174.5	6	1_inacc	1	3.491088	p18.jpg	147
182.9	6	1_acc	1	2.114402	p1.jpg	147
192.8	6	1_inacc	3	3.839494	p5.jpg	147
204.9	6	1_inacc	4	2.899777	p12.jpg	147
213.7	6	1_inacc	1	4.13E-04	p22.jpg	147
224.3	6	5_acc	2	3.65E-04	p23.jpg	147
236	6	5_inacc	4	2.643491	p14.jpg	147
3.1	6	1_acc	1	2.272744	p5.jpg	151
13	6	1_inacc	2	3.718531	p1.jpg	151
24.7	6	5_acc	1	1.69404	p3.jpg	151
35.4	6	5_acc	2	2.109951	p6.jpg	151
44.2	6	1_acc	4	4.407752	p12.jpg	151
54.8	6	1_acc	2	4.625612	p24.jpg	151
65.9	6	1_inacc	1	5.287372	p17.jpg	151
73.9	6	1_acc	2	2.334752	p18.jpg	151
83.1	6	1_acc	1	5.349321	p19.jpg	151
94.5	6	5_acc	3	4.162327	p14.jpg	151
104	6	5_acc	3	3.622923	p8.jpg	151
115	6	5_acc	3	1.883766	p13.jpg	151
123.1	6	5_acc	2	3.341417	p10.jpg	151
131.5	6	5_acc	2	4.044753	p11.jpg	151
141.8	6	5_acc	1	3.685457	p2.jpg	151
150.9	6	5_inacc	2	4.989364	p23.jpg	151
160.8	6	5_inacc	3	4.898516	p4.jpg	151
172.2	6	5_acc	1	1.72082	p7.jpg	151
184.3	6	1_inacc	3	3.248477	p22.jpg	151
193.8	6	1_acc	2	3.493754	p16.jpg	151
202.2	6	1_acc	3	3.844995	p20.jpg	151
211	6	5_acc	4	2.70515	p9.jpg	151
222.7	6	1_acc	2	1.920785	p21.jpg	151
234.8	6	1_acc	3	2.41033	p15.jpg	151
3.06	6	5_inacc	2	0.5095348	p24.jpg	153
14.79	6	1_acc	2	0.4660202	p10.jpg	153
26.5	6	5_inacc	3	1.131534	p12.jpg	153
35.68	6	1_inacc	2	0.816041	p23.jpg	153
45.93	6	1_acc	1	1.918647	p4.jpg	153
57.28	6	5_inacc	2	0.9961984	p1.jpg	153
68.62	6	5_inacc	3	1.751253	p5.jpg	153
79.59	6	1_acc	2	1.640405	p3.jpg	153
91.67	6	1_acc	3	2.679547	p13.jpg	153
102.66	6	5_inacc	2	1.289939	p18.jpg	153
112.91	6	5_inacc	3	1.218189	p22.jpg	153
123.52	6	5_acc	2	1.762487	p21.jpg	153
132.31	6	1_inacc	4	2.77445	p9.jpg	153
141.47	6	1_inacc	4	2.512237	p7.jpg	153
150.28	6	1_inacc	3	2.025003	p2.jpg	153
160.16	6	5_inacc	4	2.154978	p17.jpg	153
169.69	6	1_inacc	4	4.59209	p8.jpg	153
179.22	6	5_inacc	4	1.483346	p15.jpg	153
189.11	6	1_acc	3	0.8618402	p11.jpg	153
199.72	6	5_acc	3	1.384181	p19.jpg	153
207.79	6	5_inacc	4	2.378202	p20.jpg	153
219.86	6	1_inacc	3	0.8951799	p14.jpg	153
227.93	6	5_inacc	4	1.346391	p16.jpg	153
236.38	6	1_inacc	4	2.091909	p6.jpg	153
3.07	6	5_acc	4	2.026575	p23.jpg	156
14.8	6	1_acc	2	2.583698	p18.jpg	156
25.79	6	1_acc	4	3.345524	p1.jpg	156
34.24	6	5_acc	2	2.642576	p13.jpg	156
43.76	6	5_acc	3	3.301676	p3.jpg	156
54.38	6	1_acc	1	2.105127	p12.jpg	156
66.45	6	1_acc	3	1.35813	p21.jpg	156
75.98	6	5_inacc	2	3.368925	p8.jpg	156
85.9	6	1_acc	1	2.662812	p24.jpg	156
95.07	6	5_acc	2	1.888625	p11.jpg	156
105.33	6	1_acc	3	4.222104	p5.jpg	156
117.06	6	5_acc	4	5.458004	p4.jpg	156
128.4	6	1_acc	3	3.695789	p16.jpg	156
137.21	6	5_inacc	2	4.313953	p10.jpg	156
145.65	6	5_acc	4	2.641036	p6.jpg	156
153.71	6	5_inacc	1	4.87639	p2.jpg	156
162.5	6	1_acc	3	5.317658	p22.jpg	156
173.85	6	5_acc	4	2.018489	p7.jpg	156
185.92	6	5_acc	4	2.131672	p14.jpg	156
196.9	6	5_acc	3	1.712355	p9.jpg	156
206.07	6	1_acc	2	2.804499	p20.jpg	156
216.68	6	1_acc	1	1.903303	p15.jpg	156
226.94	6	1_miss	NA	NA	p19.jpg	156
235.01	6	1_acc	1	3.24336	p17.jpg	156
3.1	6	5_inacc	4	3.50117	p14.jpg	158
11.5	6	1_acc	1	1.625845	p22.jpg	158
20.3	6	1_acc	4	2.230517	p18.jpg	158
30.6	6	1_acc	2	2.149921	p16.jpg	158
39	6	5_inacc	2	2.821692	p10.jpg	158
48.2	6	5_inacc	2	2.785221	p23.jpg	158
58.5	6	1_inacc	2	3.647533	p21.jpg	158
70.5	6	5_acc	4	1.473774	p2.jpg	158
80.4	6	1_acc	3	1.803982	p24.jpg	158
88.5	6	1_inacc	1	2.446206	p19.jpg	158
98	6	1_acc	1	2.735778	p17.jpg	158
107.9	6	1_inacc	3	3.696092	p5.jpg	158
119.2	6	5_acc	4	2.582603	p8.jpg	158
131	6	5_acc	2	4.23996	p4.jpg	158
141.6	6	5_acc	3	3.095879	p3.jpg	158
153.6	6	5_inacc	4	3.967687	p6.jpg	158
165	6	1_acc	2	1.984325	p15.jpg	158
175.6	6	1_acc	2	2.708443	p20.jpg	158
184.8	6	5_acc	3	3.514545	p11.jpg	158
195.7	6	5_acc	3	4.625688	p7.jpg	158
203.8	6	1_acc	3	2.12551	p1.jpg	158
215.5	6	5_inacc	4	3.097332	p9.jpg	158
225	6	1_acc	3	3.701126	p12.jpg	158
236	6	5_acc	2	2.829972	p13.jpg	158
3.08	6	5_inacc	3	2.197804	p2.jpg	161
14.08	6	1_inacc	2	2.514283	p18.jpg	161
24.35	6	1_inacc	1	2.904311	p15.jpg	161
36.05	6	5_acc	1	1.673286	p6.jpg	161
45.59	6	5_inacc	2	2.587755	p13.jpg	161
54.4	6	1_inacc	4	3.377923	p24.jpg	161
64.3	6	5_inacc	1	3.501223	p9.jpg	161
72.38	6	5_acc	3	3.754846	p4.jpg	161
84.08	6	5_inacc	3	3.024153	p14.jpg	161
94.33	6	1_acc	4	4.785053	p21.jpg	161
102.41	6	5_acc	4	2.796221	p3.jpg	161
114.5	6	5_acc	1	1.13252	p7.jpg	161
123.67	6	5_inacc	3	3.213791	p10.jpg	161
134.29	6	1_inacc	4	2.507959	p22.jpg	161
143.82	6	1_inacc	3	2.490304	p1.jpg	161
154.44	6	1_acc	1	3.109005	p12.jpg	161
165.78	6	1_acc	3	3.27246	p19.jpg	161
174.95	6	1_inacc	2	2.987316	p16.jpg	161
183.76	6	5_acc	2	2.685225	p8.jpg	161
195.11	6	1_inacc	2	2.667146	p17.jpg	161
207.19	6	1_inacc	2	3.124412	p20.jpg	161
218.16	6	5_inacc	1	3.720657	p11.jpg	161
226.6	6	5_inacc	3	3.469715	p23.jpg	161
236.49	6	1_acc	1	3.251245	p5.jpg	161
3.08	6	5_inacc	4	2.814464	p20.jpg	164
11.55	6	5_inacc	3	2.506027	p12.jpg	164
23.64	6	1_acc	4	4.466947	p10.jpg	164
35.74	6	1_inacc	4	3.767236	p7.jpg	164
43.83	6	5_acc	4	2.240491	p16.jpg	164
53.37	6	5_inacc	1	3.465741	p5.jpg	164
62.54	6	1_acc	4	4.068588	p4.jpg	164
73.92	6	1_inacc	4	2.515901	p23.jpg	164
85.62	6	1_acc	1	3.386081	p14.jpg	164
95.53	6	1_inacc	1	2.938779	p8.jpg	164
106.55	6	5_inacc	1	4.287276	p18.jpg	164
116.81	6	5_acc	2	2.775116	p15.jpg	164
127.78	6	1_inacc	3	3.095587	p3.jpg	164
137.3	6	5_inacc	2	3.272884	p21.jpg	164
148.63	6	5_acc	2	3.468981	p1.jpg	164
159.25	6	1_acc	1	2.350058	p11.jpg	164
169.49	6	5_acc	4	3.224288	p24.jpg	164
177.55	6	1_acc	4	1.544824	p13.jpg	164
186.74	6	5_acc	2	4.235212	p19.jpg	164
195.54	6	1_acc	1	2.126279	p9.jpg	164
206.16	6	5_acc	1	1.224819	p22.jpg	164
217.86	6	5_acc	3	3.948411	p17.jpg	164
227.74	6	1_acc	1	4.388044	p6.jpg	164
236.17	6	1_acc	4	4.920361	p2.jpg	164
3.08	6	5_acc	4	2.325662	p15.jpg	171
11.18	6	5_acc	1	1.358676	p12.jpg	171
20.01	6	5_acc	4	2.082771	p22.jpg	171
29.18	6	1_inacc	4	1.448279	p7.jpg	171
39.46	6	5_acc	1	3.52771	p21.jpg	171
49.73	6	5_inacc	3	1.85694	p16.jpg	171
58.17	6	5_inacc	1	1.998155	p17.jpg	171
69.52	6	5_inacc	2	1.639044	p18.jpg	171
79.05	6	5_inacc	3	2.462294	p24.jpg	171
89.68	6	1_acc	3	2.12444	p3.jpg	171
100.71	6	1_inacc	2	2.033321	p23.jpg	171
110.6	6	1_inacc	3	1.232694	p2.jpg	171
121.22	6	5_acc	2	2.297799	p20.jpg	171
132.24	6	1_inacc	4	1.268568	p6.jpg	171
143.95	6	1_inacc	2	1.261394	p11.jpg	171
152.76	6	1_inacc	3	2.476303	p8.jpg	171
162.28	6	1_inacc	2	2.08834	p9.jpg	171
174.35	6	1_inacc	2	1.588785	p10.jpg	171
182.8	6	5_acc	4	1.839056	p1.jpg	171
194.5	6	5_inacc	1	2.087405	p19.jpg	171
206.58	6	1_inacc	2	1.65404	p4.jpg	171
215.73	6	1_inacc	1	1.671134	p13.jpg	171
227.08	6	5_inacc	2	1.616763	p5.jpg	171
236.97	6	1_acc	3	2.478271	p14.jpg	171
3.09	6	5_inacc	3	2.741719	p9.jpg	172
14.09	6	5_acc	4	1.873716	p3.jpg	172
26.18	6	5_acc	2	2.578979	p11.jpg	172
36.82	6	1_inacc	3	2.775507	p17.jpg	172
45.27	6	1_acc	3	2.862517	p24.jpg	172
53.35	6	5_acc	2	1.663234	p8.jpg	172
63.62	6	1_acc	1	2.330211	p1.jpg	172
75.73	6	1_inacc	1	5.51012	p21.jpg	172
84.89	6	5_inacc	1	5.291516	p10.jpg	172
93.35	6	5_acc	3	2.160275	p23.jpg	172
102.51	6	1_inacc	1	5.98244	p15.jpg	172
114.23	6	5_acc	4	1.983454	p7.jpg	172
123.75	6	5_acc	2	2.540102	p13.jpg	172
135.14	6	1_inacc	3	5.104593	p12.jpg	172
145.4	6	1_acc	4	1.085902	p5.jpg	172
154.2	6	1_acc	3	4.167993	p20.jpg	172
164.82	6	5_acc	3	1.804555	p14.jpg	172
172.93	6	1_inacc	3	4.129845	p18.jpg	172
182.81	6	1_acc	1	2.940973	p22.jpg	172
193.79	6	5_acc	1	3.756351	p4.jpg	172
203.68	6	1_acc	2	3.677106	p19.jpg	172
213.21	6	5_acc	2	2.058567	p6.jpg	172
222	6	1_acc	4	2.047768	p16.jpg	172
233.34	6	5_acc	1	1.070093	p2.jpg	172
3.06	6	5_acc	3	2.618776	p12.jpg	174
13.7	6	5_acc	3	2.874485	p19.jpg	174
22.14	6	5_acc	1	4.023764	p18.jpg	174
30.21	6	1_acc	1	2.669696	p7.jpg	174
41.19	6	1_acc	4	3.828244	p23.jpg	174
49.98	6	1_inacc	2	4.015399	p11.jpg	174
58.42	6	5_acc	1	3.706442	p15.jpg	174
70.49	6	1_inacc	3	3.995078	p13.jpg	174
80.37	6	5_inacc	1	4.618391	p17.jpg	174
91.71	6	5_inacc	1	3.754021	p16.jpg	174
101.97	6	1_inacc	4	4.622222	p10.jpg	174
114.04	6	5_acc	4	4.527549	p24.jpg	174
123.92	6	1_inacc	3	4.993835	p6.jpg	174
131.99	6	1_inacc	4	3.538298	p2.jpg	174
143.33	6	1_acc	4	4.209678	p4.jpg	174
152.86	6	5_acc	4	5.173121	p20.jpg	174
162.01	6	5_inacc	2	5.113697	p1.jpg	174
173.72	6	5_acc	3	3.142519	p22.jpg	174
184.7	6	5_inacc	3	5.735159	p5.jpg	174
193.49	6	1_acc	1	2.746271	p14.jpg	174
205.19	6	1_inacc	1	3.241288	p8.jpg	174
215.44	6	5_inacc	3	4.60934	p21.jpg	174
224.95	6	1_acc	3	3.047321	p3.jpg	174
234.11	6	1_inacc	4	4.316384	p9.jpg	174
3.1	6	1_acc	2	2.825244	p16.jpg	176
11.95	6	1_acc	3	2.281648	p17.jpg	176
21.12	6	1_acc	2	2.410509	p21.jpg	176
29.57	6	1_inacc	1	2.467173	p24.jpg	176
39.48	6	5_inacc	3	2.78062	p8.jpg	176
51.21	6	5_acc	4	1.940866	p7.jpg	176
61.84	6	1_inacc	1	2.922286	p22.jpg	176
73.93	6	1_acc	4	3.499691	p18.jpg	176
85.28	6	5_inacc	1	3.204053	p3.jpg	176
96.28	6	5_acc	2	3.847034	p13.jpg	176
106.19	6	5_acc	1	1.923928	p10.jpg	176
117.54	6	5_acc	2	3.608212	p14.jpg	176
126.33	6	1_inacc	1	2.695184	p5.jpg	176
136.61	6	1_acc	2	3.071514	p15.jpg	176
146.12	6	1_acc	2	2.113756	p12.jpg	176
157.1	6	1_acc	1	2.90969	p20.jpg	176
167.71	6	1_acc	3	5.04106	p19.jpg	176
175.79	6	5_acc	2	3.794998	p4.jpg	176
183.86	6	5_acc	2	4.118946	p23.jpg	176
194.15	6	5_inacc	3	2.572815	p9.jpg	176
206.22	6	5_acc	4	2.278777	p2.jpg	176
215.38	6	5_inacc	2	2.687519	p11.jpg	176
223.81	6	5_inacc	4	3.086984	p6.jpg	176
233.34	6	1_acc	2	5.089492	p1.jpg	176
3.074	6	1_acc	3	1.757718	p24.jpg	178
11.537	6	5_acc	1	2.311051	p9.jpg	178
21.106	6	1_inacc	4	2.470855	p22.jpg	178
31	6	5_acc	2	1.802667	p23.jpg	178
39.8	6	5_inacc	4	3.700431	p2.jpg	178
48.957	6	5_acc	1	3.118397	p11.jpg	178
60.302	6	1_acc	1	3.887501	p15.jpg	178
70.917	6	1_acc	3	3.120585	p1.jpg	178
82.987	6	1_acc	3	2.767525	p12.jpg	178
93.236	6	1_inacc	3	4.799111	p5.jpg	178
102.392	6	5_acc	2	3.208901	p13.jpg	178
114.094	6	5_acc	2	1.573624	p10.jpg	178
123.982	6	5_acc	4	1.885342	p4.jpg	178
132.41	6	5_acc	3	3.825198	p6.jpg	178
143.024	6	5_acc	1	1.309021	p3.jpg	178
151.088	6	5_inacc	4	4.135762	p8.jpg	178
162.062	6	1_inacc	3	4.49668	p16.jpg	178
173.043	6	1_acc	1	4.018658	p19.jpg	178
181.847	6	1_acc	2	1.543121	p18.jpg	178
191.381	6	5_acc	2	4.123489	p7.jpg	178
203.447	6	5_inacc	1	5.754756	p14.jpg	178
213.687	6	1_inacc	1	3.806093	p17.jpg	178
221.747	6	1_acc	1	2.876253	p21.jpg	178
233.451	6	1_acc	3	3.03234	p20.jpg	178
3.07	6	5_inacc	3	4.212427	p23.jpg	183
12.24	6	1_acc	2	1.627718	p12.jpg	183
22.5	6	5_inacc	4	3.514231	p7.jpg	183
30.58	6	1_inacc	3	2.506055	p18.jpg	183
42.65	6	5_inacc	4	3.326243	p13.jpg	183
51.08	6	1_inacc	1	1.415539	p22.jpg	183
60.23	6	5_acc	3	3.125615	p8.jpg	183
70.49	6	5_acc	1	3.153333	p14.jpg	183
81.84	6	1_inacc	4	2.493161	p19.jpg	183
92.45	6	5_acc	4	2.121919	p10.jpg	183
103.43	6	5_inacc	2	3.489902	p2.jpg	183
115.5	6	1_acc	3	2.449316	p21.jpg	183
123.93	6	1_inacc	3	5.640355	p20.jpg	183
135.27	6	5_inacc	4	1.846054	p11.jpg	183
146.98	6	1_acc	4	4.30893	p5.jpg	183
156.89	6	1_inacc	2	1.760135	p1.jpg	183
168.58	6	1_acc	2	2.763878	p15.jpg	183
176.65	6	5_acc	2	1.982177	p9.jpg	183
186.17	6	1_inacc	4	4.137706	p24.jpg	183
195.72	6	1_acc	2	3.287586	p16.jpg	183
206.71	6	5_acc	4	1.156561	p3.jpg	183
216.6	6	1_inacc	1	3.218428	p17.jpg	183
225.4	6	5_acc	3	3.883647	p6.jpg	183
236.03	6	5_acc	3	1.488947	p4.jpg	183
3.06	6	1_acc	1	2.755023	p20.jpg	185
13.34	6	5_acc	4	2.890237	p2.jpg	185
24.33	6	5_miss	NA	NA	p14.jpg	185
33.86	6	5_acc	2	2.917058	p11.jpg	185
45.57	6	5_acc	2	1.954606	p8.jpg	185
56.19	6	5_acc	4	4.193034	p23.jpg	185
64.98	6	1_inacc	3	3.657151	p22.jpg	185
73.42	6	1_inacc	1	2.140357	p1.jpg	185
84.41	6	1_inacc	2	3.754793	p12.jpg	185
93.57	6	5_acc	1	1.448497	p4.jpg	185
104.91	6	1_acc	2	3.561467	p17.jpg	185
113.7	6	1_acc	3	2.206208	p21.jpg	185
121.77	6	5_acc	2	3.1256	p9.jpg	185
131.65	6	5_acc	3	2.817514	p7.jpg	185
139.72	6	1_acc	2	2.845663	p19.jpg	185
149.24	6	5_acc	1	2.750233	p3.jpg	185
159.49	6	5_acc	3	3.41684	p13.jpg	185
171.56	6	1_acc	3	3.632086	p18.jpg	185
181.45	6	5_inacc	1	3.255427	p10.jpg	185
190.61	6	1_acc	4	3.082425	p24.jpg	185
201.95	6	1_acc	1	3.309209	p5.jpg	185
214.03	6	1_inacc	2	4.968786	p16.jpg	185
224.65	6	5_inacc	4	3.477868	p6.jpg	185
233.08	6	1_inacc	2	3.383615	p15.jpg	185
3.06	6	5_inacc	2	1.868534	p22.jpg	187
12.24	6	5_acc	3	4.658974	p19.jpg	187
20.69	6	1_acc	1	3.279361	p10.jpg	187
30.59	6	1_acc	2	3.367726	p3.jpg	187
41.94	6	1_inacc	2	2.674	p4.jpg	187
50.73	6	5_inacc	1	2.550418	p20.jpg	187
61.34	6	5_inacc	2	1.744558	p24.jpg	187
73.05	6	1_acc	3	2.925373	p8.jpg	187
83.68	6	5_inacc	3	2.388057	p21.jpg	187
94.65	6	1_acc	3	2.516352	p14.jpg	187
104.91	6	5_acc	3	2.98343	p5.jpg	187
115.15	6	1_inacc	3	2.381103	p13.jpg	187
126.12	6	5_inacc	3	2.12763	p15.jpg	187
134.21	6	1_inacc	3	2.327326	p11.jpg	187
142.63	6	5_inacc	2	2.221604	p18.jpg	187
152.15	6	1_acc	4	3.758232	p7.jpg	187
163.87	6	5_inacc	4	2.916356	p17.jpg	187
172.66	6	1_inacc	1	2.308309	p9.jpg	187
182.19	6	1_inacc	2	3.987812	p6.jpg	187
191.36	6	5_inacc	2	1.715422	p16.jpg	187
203.43	6	5_inacc	1	3.454663	p1.jpg	187
214.77	6	1_acc	2	2.812098	p2.jpg	187
226.85	6	1_inacc	3	1.810004	p23.jpg	187
234.92	6	5_inacc	2	1.088452	p12.jpg	187
3.07	6	1_inacc	4	5.125344	p24.jpg	190
11.15	6	1_inacc	2	2.908249	p1.jpg	190
23.24	6	5_inacc	1	4.53853	p6.jpg	190
33.51	6	5_inacc	4	4.376746	p4.jpg	190
42.32	6	1_inacc	1	5.021099	p5.jpg	190
52.57	6	1_inacc	2	4.06787	p19.jpg	190
62.1	6	1_acc	2	5.031377	p17.jpg	190
73.82	6	5_acc	3	4.614289	p8.jpg	190
82.25	6	1_acc	4	3.267173	p20.jpg	190
91.05	6	5_inacc	4	2.667949	p11.jpg	190
100.23	6	5_miss	NA	NA	p2.jpg	190
109.75	6	5_inacc	4	2.593044	p10.jpg	190
121.45	6	5_inacc	3	4.122765	p23.jpg	190
132.07	6	1_acc	3	4.13702	p21.jpg	190
143.04	6	1_inacc	3	3.52603	p15.jpg	190
153.66	6	5_acc	2	2.469369	p14.jpg	190
164.63	6	1_inacc	2	2.785535	p12.jpg	190
173.05	6	1_inacc	4	3.330286	p16.jpg	190
184.4	6	5_inacc	1	2.619507	p13.jpg	190
194.29	6	5_inacc	1	3.602898	p3.jpg	190
202.36	6	5_acc	3	4.206862	p7.jpg	190
213.71	6	1_acc	2	2.812409	p18.jpg	190
222.88	6	1_acc	3	3.289685	p22.jpg	190
232.77	6	5_inacc	2	2.634792	p9.jpg	190
3.1	6	5_acc	2	3.515997	p21.jpg	192
11.2	6	5_acc	2	1.654975	p22.jpg	192
19.7	6	1_acc	3	3.960284	p8.jpg	192
27.8	6	5_acc	1	2.438549	p15.jpg	192
37.4	6	1_acc	1	2.898711	p14.jpg	192
47.6	6	1_inacc	1	3.657169	p10.jpg	192
56.4	6	5_acc	2	5.02045	p20.jpg	192
65.6	6	1_inacc	2	3.653039	p11.jpg	192
77.7	6	1_inacc	3	3.273393	p13.jpg	192
87.6	6	1_acc	1	1.861462	p3.jpg	192
98.9	6	1_acc	3	2.50778	p4.jpg	192
109.9	6	1_acc	1	3.873535	p23.jpg	192
119.1	6	1_inacc	2	4.169583	p7.jpg	192
127.5	6	5_inacc	4	3.759965	p24.jpg	192
137.4	6	1_acc	4	2.270262	p9.jpg	192
149.1	6	5_inacc	2	3.589645	p1.jpg	192
159.8	6	5_acc	4	3.886325	p5.jpg	192
170	6	5_inacc	4	4.002914	p12.jpg	192
181.4	6	1_acc	3	4.788904	p6.jpg	192
190.9	6	5_acc	1	1.552594	p19.jpg	192
201.9	6	1_acc	1	3.463471	p2.jpg	192
212.5	6	5_acc	1	3.151493	p17.jpg	192
224.2	6	5_acc	2	2.867414	p18.jpg	192
233	6	5_acc	1	2.105491	p16.jpg	192
3.06	6	5_acc	1	2.334198	p1.jpg	194
15.15	6	1_acc	2	3.342934	p6.jpg	194
25.41	6	5_acc	4	3.102205	p16.jpg	194
36.38	6	1_inacc	4	3.465469	p7.jpg	194
45.55	6	5_acc	1	1.673066	p15.jpg	194
57.26	6	1_acc	4	1.906486	p8.jpg	194
67.87	6	5_inacc	2	2.589639	p21.jpg	194
78.48	6	5_acc	2	3.029673	p19.jpg	194
88.39	6	5_acc	4	2.911613	p5.jpg	194
96.45	6	5_acc	4	2.172679	p22.jpg	194
105.97	6	1_acc	4	3.695144	p10.jpg	194
115.49	6	5_inacc	1	3.509951	p12.jpg	194
126.84	6	1_acc	1	1.108473	p4.jpg	194
138.91	6	1_inacc	2	3.537002	p9.jpg	194
150.26	6	1_inacc	2	2.869045	p14.jpg	194
160.17	6	1_acc	4	2.664788	p3.jpg	194
171.15	6	1_acc	3	2.726924	p13.jpg	194
179.94	6	1_acc	1	2.866183	p11.jpg	194
188.02	6	5_inacc	3	3.644866	p20.jpg	194
196.83	6	1_inacc	3	2.899109	p2.jpg	194
205.27	6	1_acc	1	2.589147	p23.jpg	194
216.98	6	5_inacc	3	3.052732	p17.jpg	194
227.23	6	5_inacc	2	3.727021	p24.jpg	194
235.66	6	5_acc	1	1.565486	p18.jpg	194
3.07	6	5_acc	1	2.486405	p12.jpg	195
12.62	6	1_inacc	3	2.897067	p3.jpg	195
23.62	6	5_acc	2	1.937757	p1.jpg	195
31.7	6	5_acc	2	4.071283	p17.jpg	195
43.4	6	5_acc	1	3.196777	p24.jpg	195
53.65	6	5_acc	3	3.90251	p16.jpg	195
62.08	6	1_inacc	2	3.942552	p9.jpg	195
74.17	6	1_inacc	1	4.404646	p13.jpg	195
84.07	6	1_acc	1	1.901613	p10.jpg	195
95.42	6	5_acc	4	4.80964	p21.jpg	195
106.76	6	1_acc	3	4.020615	p23.jpg	195
115.19	6	5_acc	3	2.684464	p15.jpg	195
125.79	6	1_inacc	4	4.315598	p14.jpg	195
136.42	6	5_acc	4	4.211858	p19.jpg	195
146.32	6	5_inacc	1	5.122612	p20.jpg	195
155.12	6	1_inacc	3	3.200072	p4.jpg	195
164.65	6	5_acc	2	3.835313	p22.jpg	195
175.65	6	1_acc	4	3.251233	p8.jpg	195
184.81	6	1_inacc	2	3.111535	p2.jpg	195
195.06	6	5_inacc	1	4.451993	p5.jpg	195
204.23	6	1_acc	3	2.976201	p7.jpg	195
215.95	6	1_acc	1	1.702658	p11.jpg	195
224.02	6	1_acc	1	4.112724	p6.jpg	195
232.82	6	5_acc	1	4.509038	p18.jpg	195
3.07	6	5_acc	1	3.309824	p13.jpg	196
11.53	6	5_inacc	2	3.274573	p23.jpg	196
23.61	6	5_inacc	3	4.303133	p10.jpg	196
32.42	6	1_acc	2	3.1494	p18.jpg	196
40.87	6	1_inacc	2	4.064479	p12.jpg	196
52.94	6	1_inacc	2	4.445411	p19.jpg	196
64.28	6	1_acc	1	5.754147	p20.jpg	196
72.35	6	1_acc	3	4.791251	p22.jpg	196
81.53	6	1_miss	NA	NA	p15.jpg	196
91.06	6	1_acc	3	3.797368	p21.jpg	196
101.31	6	5_inacc	2	3.578975	p4.jpg	196
110.47	6	5_acc	1	3.252575	p7.jpg	196
121.81	6	5_inacc	3	4.382508	p8.jpg	196
131.33	6	1_acc	3	3.557647	p24.jpg	196
142.31	6	5_inacc	2	3.954099	p14.jpg	196
154.02	6	1_acc	1	2.632783	p5.jpg	196
162.82	6	5_acc	1	4.253985	p6.jpg	196
173.43	6	1_acc	3	4.775592	p16.jpg	196
185.14	6	5_acc	3	3.183761	p3.jpg	196
195.39	6	5_inacc	2	4.881109	p9.jpg	196
206.38	6	5_inacc	3	2.194958	p11.jpg	196
216.27	6	5_acc	4	3.298726	p2.jpg	196
224.33	6	1_acc	4	4.25176	p17.jpg	196
234.94	6	1_acc	2	1.832706	p1.jpg	196
3.07	6	1_inacc	1	4.297504	p8.jpg	201
12.6	6	5_acc	3	1.815869	p1.jpg	201
21.05	6	5_acc	4	3.169391	p22.jpg	201
29.85	6	1_acc	2	1.945479	p4.jpg	201
40.46	6	5_acc	2	2.262862	p15.jpg	201
48.53	6	5_inacc	4	3.685893	p20.jpg	201
59.51	6	5_acc	1	2.141873	p18.jpg	201
70.12	6	1_inacc	1	2.809943	p9.jpg	201
81.47	6	5_acc	1	4.508635	p21.jpg	201
90.62	6	5_inacc	2	5.325313	p17.jpg	201
101.97	6	1_inacc	2	4.804372	p3.jpg	201
111.13	6	5_acc	4	2.735396	p5.jpg	201
122.83	6	1_acc	4	4.419534	p14.jpg	201
134.9	6	1_acc	2	2.596159	p10.jpg	201
143.7	6	1_acc	1	1.123948	p11.jpg	201
154.69	6	1_acc	2	3.852418	p2.jpg	201
164.93	6	1_acc	3	2.83969	p7.jpg	201
174.82	6	5_inacc	2	3.023911	p24.jpg	201
184.34	6	5_acc	1	2.410439	p16.jpg	201
196.41	6	1_acc	2	5.255251	p23.jpg	201
204.85	6	1_acc	1	3.141615	p13.jpg	201
212.92	6	5_acc	4	3.952827	p19.jpg	201
223.17	6	5_acc	1	3.076509	p12.jpg	201
233.06	6	1_inacc	1	4.45299	p6.jpg	201
3.1	6	5_inacc	1	2.287958	p3.jpg	207
14.5	6	1_inacc	2	3.361918	p17.jpg	207
25.8	6	1_acc	4	3.134551	p1.jpg	207
36.5	6	1_inacc	3	3.878282	p19.jpg	207
46	6	5_inacc	1	3.488274	p11.jpg	207
57	6	5_acc	4	3.991302	p13.jpg	207
68.7	6	1_inacc	1	3.344794	p22.jpg	207
79	6	5_acc	2	2.224379	p8.jpg	207
89.6	6	5_inacc	3	3.783014	p6.jpg	207
101.7	6	1_acc	1	3.119791	p5.jpg	207
111.6	6	1_acc	2	1.619514	p21.jpg	207
123.3	6	5_inacc	2	2.788387	p14.jpg	207
132.4	6	5_acc	2	2.529509	p23.jpg	207
140.9	6	5_inacc	1	2.821511	p9.jpg	207
151.1	6	5_inacc	4	3.576346	p2.jpg	207
159.9	6	1_acc	4	3.112901	p12.jpg	207
168	6	5_acc	1	0.9378768	p7.jpg	207
177.5	6	1_inacc	1	2.294447	p16.jpg	207
188.5	6	1_acc	2	3.279206	p18.jpg	207
197.3	6	1_inacc	1	3.427138	p24.jpg	207
209.4	6	1_inacc	4	3.324753	p15.jpg	207
217.8	6	5_inacc	1	2.764401	p4.jpg	207
227.7	6	1_inacc	1	2.289054	p20.jpg	207
236.9	6	5_acc	1	1.227991	p10.jpg	207
3.1	6	5_miss	NA	NA	p16.jpg	214
14.1	6	5_miss	NA	NA	p5.jpg	214
22.2	6	5_acc	3	3.010981	p12.jpg	214
32.1	6	1_acc	1	1.876438	p14.jpg	214
41.6	6	5_inacc	1	2.474412	p17.jpg	214
53	6	1_acc	2	2.556558	p11.jpg	214
63.2	6	1_acc	3	3.421902	p23.jpg	214
72.4	6	5_inacc	1	2.914966	p22.jpg	214
81.6	6	5_inacc	1	2.321056	p1.jpg	214
90	6	1_inacc	2	2.94108	p4.jpg	214
101	6	1_acc	2	2.965402	p2.jpg	214
109.8	6	5_inacc	1	3.037887	p24.jpg	214
120	6	1_acc	4	3.429057	p8.jpg	214
128.5	6	5_inacc	1	2.571054	p15.jpg	214
138	6	5_inacc	1	2.442707	p18.jpg	214
148.6	6	5_inacc	1	3.703235	p20.jpg	214
160.3	6	1_acc	4	3.578131	p3.jpg	214
171.7	6	5_inacc	1	2.866172	p19.jpg	214
183.8	6	5_inacc	3	3.984318	p21.jpg	214
192.6	6	1_acc	2	1.599449	p9.jpg	214
204.6	6	1_acc	3	3.941495	p6.jpg	214
214.5	6	1_inacc	1	2.779332	p7.jpg	214
226.2	6	1_acc	2	3.343103	p13.jpg	214
234.3	6	1_inacc	4	3.121844	p10.jpg	214
3.1	6	5_acc	4	2.232402	p15.jpg	216
13.7	6	5_inacc	2	2.347957	p16.jpg	216
24	6	1_acc	2	3.172939	p3.jpg	216
35	6	1_acc	1	2.655113	p9.jpg	216
44.1	6	1_inacc	4	2.959485	p7.jpg	216
52.9	6	5_acc	4	3.280267	p19.jpg	216
61.4	6	1_inacc	2	2.901431	p4.jpg	216
69.4	6	5_acc	2	2.34298	p17.jpg	216
78.2	6	5_inacc	4	3.480298	p24.jpg	216
88.1	6	5_inacc	4	3.30616	p18.jpg	216
99.1	6	1_acc	4	1.666189	p2.jpg	216
107.6	6	1_inacc	4	3.645387	p14.jpg	216
119.6	6	1_acc	3	3.579841	p13.jpg	216
131.3	6	5_acc	1	3.51257	p1.jpg	216
142.7	6	1_inacc	1	3.387682	p8.jpg	216
152.2	6	1_inacc	4	2.794382	p23.jpg	216
162.5	6	1_acc	4	3.757779	p11.jpg	216
172.3	6	5_inacc	2	4.205647	p21.jpg	216
184.4	6	5_inacc	1	4.222111	p22.jpg	216
196.1	6	1_acc	3	3.818296	p6.jpg	216
206.7	6	1_acc	1	4.550763	p10.jpg	216
218.1	6	5_acc	2	1.342771	p12.jpg	216
226.2	6	5_acc	3	4.696768	p20.jpg	216
235.3	6	5_acc	3	4.059217	p5.jpg	216
3.1	6	5_acc	2	2.325494	p5.jpg	225
14.5	6	1_acc	2	1.902006	p2.jpg	225
24.7	6	1_acc	1	1.729462	p3.jpg	225
34.3	6	5_acc	1	3.096172	p22.jpg	225
43.8	6	1_acc	1	1.513187	p14.jpg	225
52.3	6	5_acc	1	4.666805	p16.jpg	225
62.9	6	1_inacc	3	4.553243	p4.jpg	225
74.6	6	1_miss	NA	NA	p8.jpg	225
85.9	6	1_acc	1	8.18E-04	p9.jpg	225
96.6	6	1_acc	4	4.322807	p6.jpg	225
106.5	6	1_acc	2	1.67399	p7.jpg	225
115.3	6	1_acc	4	5.192201	p13.jpg	225
127.4	6	1_acc	3	4.595649	p23.jpg	225
135.4	6	5_inacc	4	2.618249	p1.jpg	225
143.5	6	5_inacc	2	3.388297	p17.jpg	225
153.8	6	5_acc	1	1.510725	p21.jpg	225
162.9	6	1_acc	1	3.106554	p11.jpg	225
172.1	6	5_inacc	1	4.333241	p24.jpg	225
180.5	6	1_inacc	1	4.578128	p10.jpg	225
191.5	6	5_acc	2	5.979463	p19.jpg	225
201.4	6	5_acc	2	3.184527	p15.jpg	225
213.1	6	5_inacc	1	1.874413	p18.jpg	225
225.2	6	5_inacc	2	5.157825	p20.jpg	225
236.1	6	5_acc	3	2.098347	p12.jpg	225